Z_PK,Z_ENT,Z_OPT,ZMAGFIELDACCURACY,ZGRAVITYX,ZGRAVITYY,ZGRAVITYZ,ZHEADING,ZMAGFIELDX,ZMAGFIELDY,ZMAGFIELDZ,ZQUATW,ZQUATX,ZQUATY,ZQUATZ,ZROTATIONRATEX,ZROTATIONRATEY,ZROTATIONRATEZ,ZTIMESTAMPEPOCH,ZUSERACCELX,ZUSERACCELY,ZUSERACCELZ,ZTIMESTAMPEST,time,gravity_original_x,gravity_original_y,gravity_original_z,user_original_x,user_original_y,user_original_z,interpolated_zcourse,vehicle_trajectory,vehicle_orthogonal,PLS_x,PLS_y
22,2,1,2,-0.0696782022714615,-0.20181547105312303,-0.976941883563995,311.49560546875,19.737594604492198,8.81078147888184,-47.3900146484375,0.9284572601318359,0.082248643040657,-0.0690232887864113,-0.35558119416236894,-0.295707732439041,-0.0204191170632839,0.550002992153168,1560740663.91736,-0.10791879892349199,0.0255613327026367,0.0043008923530578605,"Sunday, June 16, 2019 at 11:04:23 PM Eastern Daylight Time",4,1.2218294914018157e-08,1.2866099297070832e-09,-0.9999999900448713,-0.06381573416206128,0.09078827057099381,0.0018408057316613852,296.25169615440603,0.05319767315504687,0.09739078791550904,0.05319767315504689,0.09739078791550898
23,2,1,2,-0.0291203018277884,-0.0528603196144104,-0.9981772303581241,246.372650146484,19.9044227600098,-15.6316890716553,-36.627105712890604,0.978451311588287,0.0288609657436609,-0.00885587744414806,0.20425878465175604,0.0799167826771736,0.252066940069199,2.07018160820007,1560740664.92059,-0.095193088054657,-0.0699272155761719,-0.0219033360481262,"Sunday, June 16, 2019 at 11:04:24 PM Eastern Daylight Time",4,1.688574627345396e-10,-2.098213481432909e-09,-0.9999999942868472,-0.05912691847922113,-0.1006608668037947,-0.02833183769393509,296.25169615440603,-0.11643140597619184,0.008504722038194808,-0.11643140597619184,0.00850472203819478
24,2,1,2,0.0400400385260582,-0.0903374031186104,-0.9951059818267819,166.01969909668,-3.6521997451782204,-12.797853469848599,-21.1879577636719,0.6143266558647161,0.0120119731873274,0.0479865930974483,0.7874996662139889,-0.38177353143692,0.445965170860291,1.02869725227356,1560740665.92383,0.0473470613360405,-0.10662309080362299,0.0329172611236572,"Sunday, June 16, 2019 at 11:04:25 PM Eastern Daylight Time",4,-1.459613045012853e-09,6.901356847111018e-10,-0.999999983077413,0.0940091831066248,0.0735214607007399,0.021228332426596715,296.25169615440603,0.10752012122811096,-0.051793389761992534,0.10752012122811094,-0.05179338976199253
25,2,1,2,0.00814600754529238,-0.21598815917968697,-0.9763619899749759,164.607040405273,-1.32150840759277,-14.538097381591802,-18.5413208007812,0.6020846962928771,0.0625390112400055,0.08892622590064998,0.790996134281158,0.12522982060909302,0.0167834982275963,0.0081192497164011,1560740666.9270802,-0.0286843404173851,0.0202484130859375,0.00221037864685059,"Sunday, June 16, 2019 at 11:04:26 PM Eastern Daylight Time",4,-3.148021422705316e-08,-9.3567542186479e-09,-0.9999999889063256,-0.010942413346371348,-0.03274402090779953,0.00676521074234883,296.25169615440603,-0.03420678766440055,-0.00466936748777314,-0.03420678766440053,-0.004669367487773156
26,2,1,2,0.12641498446464502,-0.0964865610003471,-0.987273812294006,159.921447753906,-1.78120422363281,-13.101081848144501,-21.9029235839844,0.568666994571686,-0.0244687329977751,0.0759234502911568,0.818690955638885,-0.41059941053390503,0.395397663116455,-0.0969426408410072,1560740667.9303,0.0213205218315125,-0.0272163674235344,-0.0438083410263062,"Sunday, June 16, 2019 at 11:04:27 PM Eastern Daylight Time",4,3.593621213104914e-09,2.2147485491397223e-08,-0.9999999925962049,0.015909622049081366,0.02240766669949383,-0.04857207479321577,296.25169615440603,0.02713359998520195,-0.004357447934659631,0.02713359998520195,-0.004357447934659638
27,2,1,2,-0.0167243722826242,0.0565846674144268,-0.9982576966285709,166.952651977539,-4.122632980346681,-7.0513820648193395,-22.003723144531197,0.621734023094177,-0.0110550839453936,-0.0273665152490139,0.7826722264289859,0.0242528710514307,-1.01221942901611,-0.970725119113922,1560740668.93357,-0.183837130665779,-0.0445608086884022,0.13572412729263303,"Sunday, June 16, 2019 at 11:04:28 PM Eastern Daylight Time",4,-9.88028459568413e-09,-4.592300633515789e-09,-0.9999999790464141,0.07804009353413024,-0.17293121336044961,0.13493455546525057,296.25169615440603,-0.12057671729108471,-0.14648111141180958,-0.12057671729108474,-0.14648111141180958
28,2,1,2,0.00241033337078989,-0.172442585229874,-0.9850166440010071,185.377548217773,0.7615756988525391,-22.942029953002898,-19.3289184570312,0.736652255058289,0.06318011134862901,0.0591604746878147,0.67070996761322,0.0703816935420036,-0.9745438694953922,-0.7080647945404049,1560740669.9368,0.0177770406007767,-0.108593553304672,0.0958106517791748,"Sunday, June 16, 2019 at 11:04:29 PM Eastern Daylight Time",4,1.4673499075523733e-08,-1.1353096518451622e-09,-1.0000000219333633,0.124625580827869,0.006359911504980095,0.07560608517289932,296.25169615440603,0.06082773214868648,-0.10895857411274497,0.060827732148686454,-0.10895857411274495
29,2,1,2,0.0422129556536674,-0.28670114278793296,-0.957089602947235,263.39068603515597,27.7093811035156,-19.7445697784424,-20.8233337402344,0.987380087375641,0.143346190452576,0.0301175359636545,0.0602107159793377,0.136653870344162,-0.878666460514069,-2.13403701782227,1560740670.94006,0.0458759069442749,0.136647045612335,-0.0404080748558044,"Sunday, June 16, 2019 at 11:04:30 PM Eastern Daylight Time",4,-4.084205347185121e-09,1.0779970083252266e-08,-0.9999999934853104,0.02729156698829271,0.14718335809215796,-0.0014338403435363682,296.25169615440603,0.14407429431006727,0.04062472457773693,0.14407429431006727,0.040624724577736936
30,2,1,2,0.0536019802093506,-0.30006489157676697,-0.952411592006683,323.991180419922,27.4135551452637,3.4328842163085898,-27.9272766113281,0.882304728031158,0.147809311747551,-0.0441202521324158,-0.44468441605567893,-0.0162799060344696,-0.39352801442146296,-0.767632186412811,1560740671.94334,0.108339406549931,0.0510575473308563,-0.0155145525932312,"Sunday, June 16, 2019 at 11:04:31 PM Eastern Daylight Time",4,-2.1542954940778625e-08,-2.0544203505057368e-08,-0.9999999760140218,0.10771665338749155,-0.054354634314806353,-0.005262870386461324,296.25169615440603,-0.0011037713747496375,-0.12064860288146564,-0.0011037713747496548,-0.12064860288146564
31,2,1,2,0.0521076507866383,-0.294257760047913,-0.954304575920105,19.9402160644531,7.0153226852417,23.7019062042236,-25.709045410156197,0.570724010467529,0.10745333135128,-0.10630853474140199,-0.8071100115776059,0.03752049431204799,0.0228490065783262,-0.724866807460785,1560740672.94659,-0.0411826521158218,-0.0037142634391784703,-0.0032305121421814,"Sunday, June 16, 2019 at 11:04:32 PM Eastern Daylight Time",4,-5.09915367846725e-08,1.0503447417375966e-08,-1.0000000301204823,0.011018492016024733,0.03993388394708164,-0.002029912186035286,296.25169615440603,0.04068873672748822,0.007781321027135203,0.04068873672748823,0.007781321027135191
32,2,1,2,-0.00614818744361401,-0.276890754699707,-0.9608817100524899,70.9031448364258,-28.3872146606445,18.734468460083,-19.4531555175781,0.163808718323708,0.020069157704711002,-0.13840651512146,-0.976528286933899,0.00426401104778051,-0.250239729881287,-0.619776666164398,1560740673.9498599,0.00930679962038994,0.0397862792015076,-0.0340526103973389,"Sunday, June 16, 2019 at 11:04:33 PM Eastern Daylight Time",4,6.3586291822181895e-09,-1.9004656320875668e-08,-0.9999999754802056,0.006586694203628611,-0.04813703186669362,-0.021646857261047595,296.25169615440603,-0.040258768616457,-0.027199079524016415,-0.042842563195412915,-0.019219295914523687
33,2,1,2,0.19913911819458,0.00893639121204615,-0.979930460453033,75.0984191894531,-20.3575115203857,18.5326156616211,-17.7525024414062,0.128578647971153,0.0986534655094147,0.017385421320796002,-0.986626923084259,0.00190848205238581,0.00180892227217555,-0.0501961149275303,1560740674.9531,0.0117520838975906,-0.024576673284172998,0.0120348930358887,"Sunday, June 16, 2019 at 11:04:34 PM Eastern Daylight Time",4,1.2494959758264229e-08,3.764283124790824e-09,-0.9999999774034513,-0.01974361182206662,0.02008959790943198,0.009672685464501122,296.25169615440603,0.009284651639177965,0.02659318325966661,0.01683381678156692,-0.00783311444150784
34,2,1,2,0.214761808514595,-0.00215186458081007,-0.9766640663146969,79.3452224731445,-21.5627136230469,15.7201261520386,-20.1286010742187,0.0924184247851372,0.107645757496357,0.008963553234934809,-0.9898439645767209,0.0438776537775993,-0.0302691832184792,-0.0204628221690655,1560740675.9563801,0.0168347209692001,-0.00666770152747631,0.0058082342147827105,"Sunday, June 16, 2019 at 11:04:35 PM Eastern Daylight Time",4,-5.2817606643038896e-08,-9.434432946681115e-09,-0.9999999816739947,-0.018617924210514555,0.0032865104253796793,0.0020428915241673304,296.25169615440603,-0.005287451442512255,0.018151339067067982,0.002467137031788839,-0.013941359151679737
35,2,1,2,0.196779444813728,-0.00951737072318792,-0.980401575565338,81.0304183959961,-22.618850708007802,14.926563262939501,-19.84228515625,0.0782788023352623,0.098945140838623,0.00301069300621748,-0.992004752159119,0.00683457404375076,-0.006988320499658579,-0.0411551333963871,1560740676.9596698,0.00585553050041199,-0.0017587905749678599,0.0229886770248413,"Sunday, June 16, 2019 at 11:04:36 PM Eastern Daylight Time",4,-4.0945845789202694e-08,-4.376563275849954e-09,-0.9999999898088388,-0.010445342527752468,0.00033786934417114436,0.021369148716420885,296.25169615440603,-0.004317111972611086,0.009517451362194763,-0.0005459749066363687,-0.010096371968513169
36,2,1,2,0.20339758694171897,0.000172608342836611,-0.9790962338447571,81.0367050170898,-22.076072692871104,14.938850402832001,-19.8596496582031,0.0777206346392632,0.101915173232555,0.00807407312095165,-0.991719543933868,0.005498732440173629,0.0293858870863914,0.0021450778003782,1560740677.96291,-0.00231973826885223,-0.00168323330581188,-0.0120844841003418,"Sunday, June 16, 2019 at 11:04:37 PM Eastern Daylight Time",4,-9.169703858204203e-09,-1.4526948862586542e-09,-1.0000000216481704,0.004408898740885162,0.0024014246809028563,-0.01135975296226804,296.25169615440603,0.004103863745854362,-0.002891976998679339,0.0002934150689608726,-0.00010287361741964391
37,2,1,2,0.208783954381943,0.0141361923888326,-0.977859616279602,81.0500030517578,-21.9000816345215,14.725826263427699,-20.2835083007812,0.0768500864505768,0.104111447930336,0.0151986293494701,-0.9914755821228031,-0.0153298396617174,0.0106654372066259,0.0298978835344315,1560740678.96618,-0.00584504008293152,-0.00479801557958126,-0.000671565532684326,"Sunday, June 16, 2019 at 11:04:38 PM Eastern Daylight Time",4,3.3428788357228734e-09,9.620238425323002e-10,-1.000000000346553,0.005040008915749401,0.0056423391564825775,0.0006314794613130409,296.25169615440603,0.007289658886492826,-0.0020244886628939533,0.0030120735711535764,0.0015982215094951062
38,2,1,2,0.22065427899360698,0.005174869671463971,-0.975338339805603,80.6090545654297,-20.8027839660645,14.715971946716301,-20.5990600585937,0.0810656771063805,0.110431388020515,0.0116502642631531,-0.99050372838974,-0.0193145070225,-0.0254686437547207,-0.0346501693129539,1560740679.96945,0.00451540946960449,-0.0057548042386770205,-0.0124398469924927,"Sunday, June 16, 2019 at 11:04:39 PM Eastern Daylight Time",4,-2.8706451451272937e-08,-5.135567863329138e-09,-0.9999999836045269,-0.0025870014238177116,0.0054739166915874085,-0.013099623940672666,296.25169615440603,0.0037650652574466384,0.004741373632233847,0.003339313110948055,-0.00317226058411029
39,2,1,2,0.210424870252609,-0.0032458358909934803,-0.9776046276092529,81.4444808959961,-21.066234588623,14.230438232421902,-21.2599792480469,0.0743423327803612,0.10563240200281099,0.00628280080854893,-0.991602540016174,-0.000284395646303892,-0.0659193322062492,-0.0721018090844154,1560740680.9727302,-0.0317799001932144,-0.0221752300858498,0.0277292728424072,"Sunday, June 16, 2019 at 11:04:40 PM Eastern Daylight Time",4,-1.340825052641723e-08,-1.7700743995541224e-09,-0.9999999846972418,0.02163742137405384,0.025790662864375896,0.03372356984836343,295.53431594121474,0.0325984630193061,-0.008406931870854712,0.019131693210820935,0.01998756294810429
40,2,1,2,0.24659478664398202,-0.0132284229621291,-0.969028413295746,82.93687438964841,-21.1127243041992,12.2025861740112,-23.880920410156197,0.0619385577738285,0.124437071382999,0.0011039584642276198,-0.990291833877563,0.0261675268411636,0.0402425974607468,-0.060747180134058,1560740681.97605,-0.00883816182613373,-0.009689966216683391,-0.0137604475021362,"Sunday, June 16, 2019 at 11:04:41 PM Eastern Daylight Time",4,-2.0948284129500652e-08,-1.9124564978531544e-09,-1.000000022874263,0.010694754898812676,0.010939585346935834,-0.011283002937864916,205.3270745768886,-0.004986990481165979,-0.014463133680130696,0.007170470561972847,0.007229001474752431
41,2,1,2,0.257244318723679,-0.0277783554047346,-0.9659470915794369,75.1474990844727,-18.431619644165,16.3481712341309,-21.3366394042969,0.12992912530899,0.130448371171951,0.0031130998395383397,-0.9828997850418091,-0.14032639563083601,-0.027005122974515,0.612963676452637,1560740682.9793198,0.0698980391025543,-0.0282207448035479,0.0385780930519104,"Sunday, June 16, 2019 at 11:04:42 PM Eastern Daylight Time",4,-3.145722735520707e-09,-5.1471026746297e-10,-1.0000000301376868,-0.08225167172547983,0.007927356102413291,0.0184995971513024,107.38423259164519,0.017009747256883666,-0.08086314967070912,0.010341746057252483,-0.05129492334071849
42,2,1,2,0.31210345029830894,-0.036518108099699,-0.949346005916595,47.229061126709006,-5.14942359924316,25.327455520629897,-11.571990966796902,0.362673729658127,0.15380848944187198,0.0408648885786533,-0.9182270169258121,0.0320316888391972,-0.072560153901577,-0.0257653091102839,1560740683.98259,-0.00278466939926147,-0.00556476414203644,0.00119417905807495,"Sunday, June 16, 2019 at 11:04:43 PM Eastern Daylight Time",4,-1.4271244965294305e-08,-7.896967656184639e-09,-0.9999999874285408,-0.0021578186853218532,0.005679117868014314,0.0017995793966643918,196.40987164709998,0.00367430938714485,-0.0048381826924024695,0.03040565605859232,0.009328430785902703
43,2,1,2,0.256353169679642,-0.0052848584018647705,-0.9665687084198001,54.441013336181605,-8.83653831481934,23.2342681884766,-11.608795166015598,0.30311009287834195,0.12388904392719301,0.0369748435914516,-0.944144368171692,0.22152328491210896,-0.16341075301170302,-0.433321386575699,1560740684.98587,0.0296817421913147,-0.00661686807870865,-0.0274811983108521,"Sunday, June 16, 2019 at 11:04:44 PM Eastern Daylight Time",4,1.5920896130963702e-08,1.1066138561055539e-08,-0.9999999727147234,-0.021351469318581395,-0.007351112814403699,-0.03420644561498128,262.3680553721391,-0.004450324818923637,0.02213862485969906,0.01242034369698157,0.004847432454297633
44,2,1,2,0.286748200654984,-0.0340166091918945,-0.957401871681213,104.866317749023,-14.6989831924438,-0.34070968627929704,-32.096282958984396,-0.12553521990776098,0.141572654247284,-0.0354435928165913,-0.9812960624694821,-0.25072285532951394,-1.61145293712616,-1.7396727800369298,1560740685.98916,0.0805237889289856,0.0433558225631714,-0.28954744338989297,"Sunday, June 16, 2019 at 11:04:45 PM Eastern Daylight Time",4,-1.8021494316809716e-08,1.0553315575589917e-08,-1.0000000020892374,-0.00800091803203871,-0.05328268265223811,-0.2988284975487743,135.04584848451307,0.043308415174212314,0.03205370704103622,-0.004108474498232595,-0.042108032116805805
45,2,1,2,-0.00378777366131544,-0.00030147403595037796,-0.9999927878379821,133.53494262695298,-16.9340991973877,-13.8490352630615,-36.052734375,-0.37083235383033797,-0.0018147533992305398,0.000562327390071005,-0.9286978840827941,-0.328834682703018,0.3124098777771,1.0578925609588599,1560740686.99244,0.0251043941825628,0.112194180488586,0.37146800756454496,"Sunday, June 16, 2019 at 11:04:46 PM Eastern Daylight Time",4,-8.971928397698975e-12,9.105327819849962e-12,-1.0000000069219415,-0.09438010679758779,-0.0649335209748408,0.37159423930066193,277.70631569347256,-0.07700300205311816,0.08482042430995997,-0.060237393386625815,-0.0194900709787379
46,2,1,2,0.16763499379158,-0.0269088596105576,-0.9854817986488341,87.4099349975586,-16.6014308929443,-0.00143051147460937,-43.2003173828125,0.0236498471349478,0.0844202041625977,-0.0115029606968164,-0.99608314037323,-1.32291495800018,-0.0150112668052316,0.164342105388641,1560740687.99576,-0.0881410241127014,0.31964942812919606,-0.304969608783722,"Sunday, June 16, 2019 at 11:04:47 PM Eastern Daylight Time",4,-4.664771019490584e-09,4.729174222367627e-10,-0.9999999766685919,0.15268083090021056,-0.3206542362587133,-0.2771650843118896,323.15223627966503,-0.07011341850628913,-0.34815899227278246,-0.052321344202994544,-0.3473531938226154
47,2,1,2,0.0314171314239502,0.14415152370929699,-0.9890567660331729,81.0466690063477,-20.788522720336896,10.0563831329346,-44.159759521484396,0.0766933932900429,0.0101469224318862,0.0732710883021355,-0.994307100772858,-1.55222284793854,0.16255694627761802,0.37189882993698103,1560740688.9990199,0.314758211374283,0.17705756425857502,-0.509112477302551,"Sunday, June 16, 2019 at 11:04:48 PM Eastern Daylight Time",4,-1.4360707987354226e-09,-1.686448208859659e-08,-0.9999999921853101,-0.2791724948626927,-0.14563634517402868,-0.5389530594684,325.88419867678357,-0.31281116224420313,0.03600560649315372,-0.20976720886893904,-0.021888310335016665
48,2,1,2,0.0969355925917625,0.0234645083546638,-0.9950140118598941,85.2488708496094,-19.867397308349602,2.63102626800537,-48.122314453125,0.0408278629183769,0.0480075590312481,0.0137208681553602,-0.9979178905487059,-0.694534718990326,-0.5812307596206671,0.660836458206177,1560740690.0023198,-0.18942135572433497,-0.207669153809547,0.11021775007247901,"Sunday, June 16, 2019 at 11:04:50 PM Eastern Daylight Time",4,-3.911630427877975e-09,-1.869298658571661e-09,-0.9999999880304817,0.16028402576689021,0.21863388286984878,0.13290273219414978,334.73805871431625,0.23825906258211174,0.1293227077982875,0.23683663569085117,0.14073767438538393
49,2,1,2,0.078432984650135,-0.0452849008142948,-0.995890319347382,90.3052978515625,-17.489425659179698,2.25731468200684,-42.4117431640625,-0.00177162582986057,0.039216585457324996,-0.0227353312075138,-0.9989705681800841,0.888424694538116,-0.0187357738614082,0.150514334440231,1560740691.00561,0.1096146479249,0.28576439619064303,-0.10931909084320098,"Sunday, June 16, 2019 at 11:04:51 PM Eastern Daylight Time",4,-1.2387037527345315e-08,9.753355709879452e-09,-0.9999999917463593,-0.10224125863128171,-0.29025553859867004,-0.1045264183781971,344.7075647052297,-0.1751748012199876,-0.25301253263672635,-0.18376188901987386,-0.22161929541283884
50,2,1,2,0.0232413001358509,-0.121275007724762,-0.992346823215485,69.8815994262695,-8.50058650970459,11.7565145492554,-34.6035766601562,0.175027310848236,0.0221165120601654,-0.0577706545591354,-0.9826184511184691,-0.399668514728546,0.36920177936554,-0.291678577661514,1560740692.00892,0.197125568985939,-0.0622700452804565,-0.733086705207825,"Sunday, June 16, 2019 at 11:04:52 PM Eastern Daylight Time",4,-9.283541132013018e-09,1.6473107572467782e-08,-1.000000001538255,-0.1594267893551673,-0.0878238441543226,-0.7396095166191314,84.189530302935,0.07123255713922183,-0.16749881065114203,-0.10995858559953214,-0.015311114990818456
51,2,1,2,0.0920408889651299,0.0353356599807739,-0.995128095149994,100.411148071289,-16.9525012969971,7.66725254058838,-42.8717041015625,-0.0914279520511627,0.0475024208426476,0.0133972885087132,-0.994587898254395,-0.19499124586582198,-0.131707578897476,-0.14625628292560597,1560740693.01221,0.0375498086214066,-0.0130586698651314,-0.0196577906608582,"Sunday, June 16, 2019 at 11:04:53 PM Eastern Daylight Time",4,-5.734739926856192e-09,-2.1946459927146833e-09,-1.0000000299323113,-0.03248864022276391,0.02006562386648271,-0.02255670000557533,46.253210485896226,-0.03696046498132126,-0.0095950525292923,0.020453430588620737,0.03409397975103961
52,2,1,2,0.16240188479423498,0.14652119576931,-0.9757854342460629,78.95384216308591,-19.662649154663104,5.531795501708981,-33.5216064453125,0.0896356850862503,0.0747168660163879,0.0807755067944527,-0.9898779392242428,-0.334258466959,0.327353298664093,-0.26372408866882296,1560740694.01548,-0.305533230304718,-0.0636084079742432,-0.17951911687851,"Sunday, June 16, 2019 at 11:04:54 PM Eastern Daylight Time",4,-1.5116600060247065e-08,-3.356468571136251e-08,-1.0000000233405821,0.3091118086840745,0.1433997162198827,-0.11623299372558138,38.748199886259044,0.1513238506713508,0.30531079427016256,0.14433160713232757,0.2673104081014855
53,2,1,2,0.12620654702186598,-0.179544731974602,-0.9756206274032589,86.3176498413086,-13.555651664733901,-6.6946086883544895,-44.8206787109375,0.0377223491668701,0.0668739005923271,-0.0878497138619423,-0.993170320987701,1.00495743751526,-0.8317121267318729,-1.04401850700378,1560740695.0188,-0.346790611743927,-0.0157787352800369,-0.290310144424438,"Sunday, June 16, 2019 at 11:04:55 PM Eastern Daylight Time",4,1.2620067994534995e-08,-1.531566536094875e-08,-1.0000000059528713,0.38219226506195075,-0.0036444720007376644,-0.2422983020723713,76.2936136155902,0.09409979112552073,0.3704449202776061,-0.02271481081741432,0.294974130044304
54,2,1,2,0.112562976777554,-0.0355455353856087,-0.9930086135864259,77.1918411254883,-13.102107048034698,1.96851444244385,-46.1206665039062,0.112338609993458,0.0580255426466465,-0.011346054263413,-0.9919095039367679,0.669805705547333,-0.18755649030208602,-0.23301970958709697,1560740696.02211,-0.0283978581428528,-0.0207739099860191,0.11672669649124098,"Sunday, June 16, 2019 at 11:04:56 PM Eastern Daylight Time",4,-1.590122370625016e-08,2.744481066019322e-10,-1.0000000077418547,0.009153338923429892,0.027715929246229197,0.11836874169111518,116.81062879729666,-0.02886507741695015,-0.004331703261147285,-0.028306258579173682,-0.06451800080796377
55,2,1,2,0.15924255549907698,0.037508912384510006,-0.9865266680717472,112.755340576172,-5.6412353515625,-3.7240219116210898,-47.7259521484375,-0.198075652122498,0.0820370838046074,0.0025645480491221,-0.9767442941665649,0.484047472476959,0.5750282406806949,-1.59408068656921,1560740697.02541,-0.17702215909957897,0.0626490414142609,0.0304259657859802,"Sunday, June 16, 2019 at 11:04:57 PM Eastern Daylight Time",4,-5.869649378955483e-09,1.1243435384111766e-09,-0.9999999884034443,0.13162695360452,-0.1254670663956583,0.05585558997336841,147.7077856372757,-0.0442395786835072,0.17638168652965297,-0.19698283687712478,0.010142299487779616
56,2,1,2,0.0774801224470139,0.0331365913152695,-0.996443092823029,168.327056884766,-2.36301708221436,-9.85110473632813,-55.695709228515604,-0.6314652562141421,0.040529128164053,-0.0116556230932474,-0.7742564678192142,0.519073963165283,0.702119946479797,-0.10497803241014501,1560740698.0287302,-0.0517552420496941,-0.191920161247253,-0.0196855068206787,"Sunday, June 16, 2019 at 11:04:58 PM Eastern Daylight Time",4,3.1872242952507568e-09,-6.7669143032078605e-09,-1.0000000201465613,0.19910329639983743,-0.01310965958482141,-0.009245903950917955,166.12550277557196,-0.19015047557187176,0.06047133578400936,-0.0551218925631116,0.1109899653402551
57,2,1,2,0.0729545131325722,0.0958753377199173,-0.992716252803802,171.472717285156,-4.564156532287599,-21.1011066436768,-52.413055419921896,-0.652714908123016,0.0590521767735481,0.0124383997172117,-0.7551962733268741,-0.297909647226334,0.326809376478195,0.36700072884559604,1560740699.032,-0.0869025215506554,-0.193487763404846,0.0513098835945129,"Sunday, June 16, 2019 at 11:04:59 PM Eastern Daylight Time",4,-3.534885920433717e-09,5.520114400303644e-09,-0.9999999999750705,0.19730630571476904,-0.054247457161538434,0.075826790189559,207.80912207509078,-0.19982668302715065,-0.04406655913126767,-0.10442036666433278,0.09672719696566817
58,2,1,2,0.0471536330878735,0.0267713703215122,-0.9985288381576541,172.370712280273,0.63632869720459,-27.169179916381804,-35.256256103515604,-0.658484160900116,0.0265660602599382,-0.00546152470633388,-0.752105832099915,-0.0388708859682083,-0.19087390601635001,0.26243010163307195,1560740700.0353,-0.0689594969153404,-0.115807011723518,0.30671054124832203,"Sunday, June 16, 2019 at 11:05:00 PM Eastern Daylight Time",5,-4.68370341946342e-09,6.901370147235908e-09,-1.000000006007376,0.11375029415452605,-0.03966188217262369,0.3126113209310728,218.36274124098983,-0.11380696371760458,-0.03949897881080118,-0.09664967043920318,0.018500308301501213
59,2,1,2,0.072784386575222,-0.032841868698597,-0.996806800365448,171.501770019531,5.3272848129272505,-10.901060104370101,-32.791778564453104,-0.651787996292114,0.0168855432420969,-0.0362141728401184,-0.7573479413986209,-0.12270384281873699,-0.00723868049681187,-0.136660948395729,1560740701.03861,-0.0566728115081787,-0.136178970336914,0.30286753177642795,"Sunday, June 16, 2019 at 11:05:01 PM Eastern Daylight Time",5,1.7261939828927542e-09,5.6454506174030694e-09,-0.9999999762617743,0.14965028322610158,-0.012484969550611548,0.30155294658861664,201.54717175816705,-0.143777371081148,-0.04334915569334636,-0.060078835406690644,0.062260662106973105
60,2,1,2,0.0857134759426117,-0.0700834095478058,-0.9938518404960629,187.475769042969,1.50517463684082,-17.8885478973389,-43.04736328125,-0.7495412230491642,0.00201063673011959,-0.0554078370332718,-0.659631609916687,-1.1991652250289901,0.286155790090561,0.260585278272629,1560740702.0419,0.171639263629913,0.13633871078491197,-0.109877526760101,"Sunday, June 16, 2019 at 11:05:02 PM Eastern Daylight Time",5,-2.0319049123373317e-09,7.598139201148157e-10,-0.999999982554711,-0.12246277858805918,0.17901482441390082,-0.11435869999864301,207.18199947190084,0.19071525462072453,-0.1033011672460673,0.13706773392647817,-0.14879387838270441
61,2,1,2,-0.000719950767233968,-0.109917879104614,-0.9939404129981991,184.592712402344,-0.727337837219238,-24.012342453002898,-41.9666137695312,-0.733762562274933,-0.0406938716769218,-0.0370648503303528,-0.677172601222992,-0.818198800086975,-0.0574912503361702,0.968498468399048,1560740703.04521,0.190401971340179,0.0889855176210403,-0.169801831245422,"Sunday, June 16, 2019 at 11:05:03 PM Eastern Daylight Time",5,2.4510402735211656e-10,-2.598844750512086e-11,-1.0000000015334973,-0.09150068894864391,0.19848626135225644,-0.15885472264662734,204.4810835526688,0.16552587368964866,-0.14272476016077668,0.16387395089725773,-0.11225667859927414
62,2,1,2,0.330665528774261,-0.250277429819107,-0.909956872463226,190.006317138672,14.8563566207886,-28.945302963256804,-36.607147216796896,-0.734381377696991,0.0153863374143839,-0.211624249815941,-0.6447188854217529,0.331549406051636,1.03566098213196,0.913515865802765,1560740704.0485198,0.0305777490139008,-0.0343383252620697,0.154201984405518,"Sunday, June 16, 2019 at 11:05:04 PM Eastern Daylight Time",5,1.1000493845697568e-08,-8.582726057637657e-09,-0.9999999967697379,0.08002942136043735,0.06854323131530583,0.12161204080489105,202.83327725888918,-0.047159890624071506,-0.09422753078986822,-0.0566347350691181,-0.07601631269745318
63,2,1,2,0.531374216079712,-0.194828346371651,-0.824429094791412,146.64352416992202,11.4238595962524,-23.416898727417003,-41.649139404296896,-0.428590178489685,0.202828332781792,-0.215977102518082,-0.8535367846488949,-1.10373306274414,0.578679978847504,0.392025113105774,1560740705.05183,0.0481555461883545,-0.0293637812137604,-0.0371478796005249,"Sunday, June 16, 2019 at 11:05:05 PM Eastern Daylight Time",5,-3.0727831945576156e-09,2.9141533131049613e-08,-0.9999999872014128,0.0035391244684224842,0.026695426340201327,-0.06193530532091789,191.61552573138388,0.001908299380664692,-0.02686130270411054,0.00725364385506435,-0.022969481921164547
64,2,1,2,0.7098547220230099,-0.21390362083911899,-0.671082377433777,110.912826538086,17.4755592346191,-20.128465652465803,-36.560333251953104,-0.12385751307010699,0.368854224681854,-0.16853895783424402,-0.9056492447853092,-4.448612689971919,-3.84742665290833,-1.54356968402863,1560740706.05512,-0.0243899822235107,-0.151187047362328,-0.0468381643295288,"Sunday, June 16, 2019 at 11:05:06 PM Eastern Daylight Time",5,-2.0402703422572888e-08,1.0779508924363412e-08,-1.0000000213443099,0.09905754365404343,0.11694199503988248,-0.04645837924509748,173.49862973839546,-0.1116615130974136,-0.10497396654159902,-0.07394287508391192,-0.13159063525600223
65,2,1,2,0.578618943691254,-0.12632192671299,0.805756270885468,141.51672363281202,-24.444410324096697,-24.4444217681885,16.1569213867187,-0.249200060963631,0.395395487546921,-0.8640257716178891,-0.187139719724655,2.63475251197815,0.46335828304290794,0.253198355436325,1560740707.0584302,-0.11904203891754199,0.10429212450981099,-0.227183222770691,"Sunday, June 16, 2019 at 11:05:07 PM Eastern Daylight Time",5,3.331559385311156e-08,4.881858131633443e-08,-1.0000001396190488,-0.07816257929816824,0.016373676129812248,0.26510862849093864,165.5450540780418,0.07160110592970802,-0.035366194341336074,0.07421441176506488,-0.0046580409022446145
66,2,1,2,0.576786935329437,0.424741148948669,0.6977907419204711,95.7587661743164,-87.9698104858398,-4.9718132019042995,43.3595123291016,-0.34030413627624495,0.11970572173595401,-0.913545787334442,0.187876984477043,0.40266013145446794,0.0565156787633896,0.0387513376772404,1560740708.06174,0.00202196836471558,0.141194045543671,-0.162275433540344,"Sunday, June 16, 2019 at 11:05:08 PM Eastern Daylight Time",5,1.8455329833799716e-08,-2.637737225863468e-08,-1.0000000659434378,-0.12251876070625242,0.16896214563091455,0.05209711894687116,164.74641694375993,0.07375000969887592,-0.19524341077386972,0.10467558358546356,-0.17118823890612578
67,2,1,2,0.9093462824821469,0.3024064302444461,0.285726606845856,139.198776245117,46.6781196594238,-8.827348709106449,-5.9256591796875,-0.35555511713028004,0.762045443058014,-0.24929912388324696,-0.480330377817154,-1.97366678714752,-2.57262754440308,0.27323868870735196,1560740709.06505,0.49522590637207003,-0.8591027855873109,0.138822197914124,"Sunday, June 16, 2019 at 11:05:09 PM Eastern Daylight Time",5,-1.755618396492853e-08,7.612341174079162e-09,-1.0000000021884676,0.7479999169377893,0.6245658639126404,-0.2301988337844947,190.67884196303066,-0.6193111733022976,-0.7523563415874248,-0.6216541446859299,-0.7518586158911149
68,2,1,2,0.9412658810615541,-0.33522135019302396,0.0405622124671936,122.54874420166,5.60477542877197,-2.59595775604248,22.651550292968697,-0.0731026232242584,0.650162160396576,-0.312362402677536,-0.688748836517334,0.36241286993026706,-1.4327621459960902,0.158464282751083,1560740710.06835,-0.0944818258285522,-0.0035578012466430703,0.131963014602661,"Sunday, June 16, 2019 at 11:05:10 PM Eastern Daylight Time",5,-5.770047188657923e-08,2.2035792829333545e-08,-1.0000000527780222,-0.09676065978701014,0.1010120845023328,0.0823871597198596,196.48056143799073,0.12144146587156994,-0.0694120801077756,0.08621696166862056,-0.09752932747566262
69,2,1,2,0.671002268791199,0.25863158702850303,0.69488513469696,230.329162597656,23.633182525634798,12.266791343689,-25.4012145996094,-0.23977555334568,0.881311535835266,-0.26595589518547097,-0.308326184749603,0.9067085385322571,0.7063494920730591,-1.3639205694198602,1560740711.07165,-0.0181947946548462,0.0182297229766846,0.1387779712677,"Sunday, June 16, 2019 at 11:05:11 PM Eastern Daylight Time",5,1.7800240836862713e-08,-3.490614161605343e-08,-0.9999998464773027,-0.08112364335495358,0.07369658835761134,-0.08894080061920022,196.8443966972585,0.09899836969315844,-0.0470271777255413,0.07449222124036381,-0.06835836915600953
70,2,1,2,0.494250565767288,0.12264856696128801,0.8606244325637821,250.706619262695,24.2992858886719,24.8854789733887,-18.2483520507812,-0.101627513766289,0.953414440155029,-0.145990163087845,-0.243638709187508,-0.10649768263101599,-0.287803590297699,-0.0666469037532806,1560740712.07497,0.0329677760601044,-0.12526243925094602,-0.016669750213623002,"Sunday, June 16, 2019 at 11:05:12 PM Eastern Daylight Time",5,-7.533816338660404e-08,4.88070448154132e-08,-1.0000003533322703,0.07597172994196422,0.10537437705784533,0.013415305696368268,198.35562390084107,-0.03892244117591199,-0.12393751112399899,-0.054700070709867835,-0.11676578613727619
71,2,1,2,0.752011120319366,-0.11490251868963199,0.649058103561401,108.045883178711,3.09522151947021,26.946092605590803,-9.56689453125,-0.0135024162009358,0.892731130123138,-0.166012600064278,-0.418674767017365,0.0125202313065529,-0.25576063990592995,0.00577735994011164,1560740713.07828,-0.0474652647972107,0.0994192212820053,0.10270988941192599,"Sunday, June 16, 2019 at 11:05:13 PM Eastern Daylight Time",5,4.483889798909471e-08,-7.137805804746655e-09,-0.999999867841956,-0.13511961978466475,-0.06361655839766299,-0.01954676833863074,195.68871120476228,0.11288314767874148,0.09778431941397897,0.12360638348727457,0.08931361206150817
72,2,1,2,0.338031560182571,-0.5163445472717291,-0.786843717098236,86.7874069213867,-11.6711006164551,18.6565475463867,10.001525878906302,0.0804246664047241,0.201404824852943,-0.25693237781524697,-0.9417822360992428,-0.662536978721619,-0.305708855390549,-0.357620626688004,1560740714.0815802,0.0225814580917358,-0.0745776295661926,0.00231993198394775,"Sunday, June 16, 2019 at 11:05:14 PM Eastern Daylight Time",5,-7.714283451615289e-09,3.5274996479373044e-08,-1.0000000311568384,-0.02501231367676968,0.05905625756185052,-0.04431557032234229,196.05138040614779,0.04036619565750921,-0.0498380140135663,0.04476831337306149,-0.04546228252194348
73,2,1,2,0.38391387462615995,-0.302787214517593,-0.87231308221817,89.9547576904297,-8.41890239715576,11.7432355880737,3.959716796875,0.0319135375320911,0.20344750583171803,-0.149841845035553,-0.9670254588127141,0.0979203283786774,0.0970221906900406,0.0045987516641616795,1560740715.0848699,0.0521523356437683,-0.0152706503868103,-0.0191866159439087,"Sunday, June 16, 2019 at 11:05:15 PM Eastern Daylight Time",5,-7.136268084882019e-08,4.204961495668513e-08,-1.0000000369073747,-0.04000732630476329,0.0028439578040472995,-0.04138249453172803,199.38010793543808,0.03868414954440169,0.010592961251386333,0.036664538249105955,0.012450637611311991
74,2,1,2,0.400806337594986,-0.35328149795532204,-0.845308542251587,84.15623474121091,-6.1125984191894505,13.5703477859497,3.9345703125,0.0882956609129906,0.224654734134674,-0.163938969373703,-0.9564822316169742,-0.26333832740783697,-0.18994787335395802,0.227215602993965,1560740716.0882099,0.0005616843700408941,-0.0115586817264557,-0.0191837549209595,"Sunday, June 16, 2019 at 11:05:16 PM Eastern Daylight Time",5,-6.072267706887235e-08,2.4563610173666817e-08,-1.0000000343286797,0.007202554844760718,0.005365762378871238,-0.020524786558066582,203.0380052601311,-0.0045282727646311915,-0.007756477806800933,-0.00520578790580494,-0.00864974054995711
75,2,1,2,0.348075181245804,-0.359458744525909,-0.865813553333282,67.86834716796871,-2.26742935180664,15.0546436309814,6.975494384765621,0.219340920448303,0.217736721038818,-0.140299528837204,-0.9406360983848571,-0.15142005681991597,0.45430168509483293,0.293531745672226,1560740717.0915198,-0.0440864264965057,-0.00989824533462524,-0.0234733819961548,"Sunday, June 16, 2019 at 11:05:17 PM Eastern Daylight Time",5,4.210086456193918e-08,-1.58997083277157e-08,-1.0000000149755217,0.04324444636433771,0.02548802133554004,-0.008536190679372677,204.42860811509064,-0.028832285625014234,-0.04109039642783485,-0.030142591353634226,-0.041576214761676604
76,2,1,2,0.47086071968078597,-0.7127075791358951,-0.5199404954910279,35.843448638916,-4.01318073272705,18.4017734527588,2.86962890625,0.5154829025268549,0.459502577781677,-0.169962152838707,-0.703027486801147,-0.43125298619270297,0.134753152728081,0.677167773246765,1560740718.09481,-0.0389320850372314,0.0107682347297668,0.141962766647339,"Sunday, June 16, 2019 at 11:05:18 PM Eastern Daylight Time",5,-2.0436562997439012e-08,-5.873115549448471e-09,-1.0000000147737556,-0.10867138601939821,-0.0034509851198651804,0.09981838408346339,204.68413360581945,0.09730023227790749,0.048518493755884844,0.09654778648373837,0.045567902446629824
77,2,1,2,0.19032916426658605,0.4410977959632871,-0.877044796943665,13.286837577819801,-3.30204582214355,0.579143524169922,18.2892761230469,0.582037627696991,-0.0582497231662273,0.24100743234157604,-0.774438202381134,-0.18593470752239202,-0.65147989988327,-0.7083416581153871,1560740719.09814,-0.0417462438344955,0.0733051300048828,0.10871434211731,"Sunday, June 16, 2019 at 11:05:19 PM Eastern Daylight Time",5,-2.094686658848932e-08,2.4741696275087932e-08,-1.00000001611002,0.11751335623769596,-0.009526411549988123,0.07095814068909964,204.31614377813375,-0.11101113186972861,-0.03970730426847319,-0.1110683007857071,-0.038743892099977945
78,2,1,2,-0.694172382354736,0.38163900375366205,-0.610308349132538,47.19364929199221,12.111289024353,2.4955463409423797,10.3831787109375,0.400776654481888,-0.44106635451316795,0.0175011418759823,-0.802827596664429,-0.575041830539703,-0.258444517850876,-0.875092744827271,1560740720.10148,0.0407422184944153,-0.0603192746639252,0.073885440826416,"Sunday, June 16, 2019 at 11:05:20 PM Eastern Daylight Time",5,-6.1349482237405e-08,-3.695106062795439e-08,-0.9999999533155068,0.0036753201771604904,0.038103230408734146,0.09639521504699711,202.5971563335035,0.011247981868746933,-0.03659025894778644,0.010640245437704511,-0.03750322332378762
79,2,1,2,-0.9487312436103821,-0.00109146896284074,-0.31608182191848805,53.853733062744105,5.32075595855713,8.12604522705078,13.454986572265598,0.251345694065094,-0.5557854175567629,-0.18182863295078303,-0.771275699138641,-1.2458075284957901,-0.0292259883135557,-0.445374608039856,1560740721.10477,0.0364922881126404,0.0237813293933868,0.13055312633514402,"Sunday, June 16, 2019 at 11:05:21 PM Eastern Daylight Time",5,-3.6629464857107497e-08,-2.6735739483418897e-08,-0.9999999410271523,0.10468392029244541,0.04711561484456189,0.07591279987799575,203.0186243058771,-0.0779251267927463,-0.08429874817760094,-0.07754702124718701,-0.08599150115523004
80,2,1,2,-0.986668944358826,-0.0143073443323374,-0.162110015749931,8.93231582641602,-19.7958450317383,24.9224529266357,7.45709228515625,0.4918564260005949,-0.48837900161743203,-0.42477163672447205,-0.5823506116867071,0.64047908782959,0.0451804921030998,1.01781618595123,1560740722.10809,-0.0207359790802002,0.0217694938182831,-0.286319971084595,"Sunday, June 16, 2019 at 11:05:22 PM Eastern Daylight Time",5,-4.17903234239958e-09,-2.801492637871661e-08,-0.9999999815352228,-0.020909057383742297,-0.2793119065291394,-0.06656341128414889,203.11700564122356,-0.09043049649646563,0.26509367233682146,-0.08965140817065118,0.26562490871972916
81,2,1,2,-0.9957552552223209,-0.00466063804924488,0.0919224396348,359.484313964844,-16.9022827148437,27.0867385864258,5.975494384765621,0.47738164663314797,-0.519013106822968,-0.525915026664734,-0.47554764151573203,-0.0575397796928883,0.137286216020584,0.0858875066041946,1560740723.1114,-0.0719383955001831,0.0385811328887939,-0.0132157802581787,"Sunday, June 16, 2019 at 11:05:23 PM Eastern Daylight Time",5,-2.993315595389845e-10,1.7465821261497538e-08,-0.9999999923791543,0.039084508094639536,-0.019423239999621023,-0.07023839679885344,203.30305856657665,-0.04357992706993926,0.0023771793499012314,-0.04371445535058577,0.0015845126868330606
82,2,1,2,-0.996728956699371,0.00015713601897005,0.0808164328336716,1.43632292747498,-16.8800449371338,27.130081176757802,6.742462158203121,0.47335621714591997,-0.5263331532478329,-0.5132071971893309,-0.48530983924865706,-0.0187630485743284,0.00641633337363601,0.0194535236805677,1560740724.1147199,0.0242332816123962,0.0259353220462799,0.0241222381591797,"Sunday, June 16, 2019 at 11:05:24 PM Eastern Daylight Time",5,-8.712684185230302e-10,-3.458169098302655e-08,-0.999999966815351,0.026583397383598054,0.02534240696526993,0.02220046472284954,203.91919925873742,-0.014025341728783686,-0.03394413641026221,-0.013794704087321301,-0.033998285588811655
83,2,1,2,-0.9946725368499759,-0.0171455647796392,0.101649329066277,0.965623140335083,-17.1573600769043,27.0929527282715,6.6981201171875,0.4653298854827879,-0.525166094303131,-0.524428486824036,-0.482331275939941,0.08150465041399,-0.663451969623566,0.0545106790959835,1560740725.1180198,-0.00478833913803101,0.0281171798706055,0.00608408451080322,"Sunday, June 16, 2019 at 11:05:25 PM Eastern Daylight Time",5,6.942185437619486e-10,2.8961666398430452e-08,-1.0000000060274015,0.02829529853892071,0.005088626840387401,-0.004899187420789173,204.8347577840553,-0.02354139415008753,-0.01650214543620266,-0.023696782049514767,-0.016591144943082465
84,2,1,2,-0.9833278059959408,0.007691705599427221,0.18168039619922602,2.93461632728577,-15.162554740905799,27.4028968811035,8.53692626953125,0.44270527362823503,-0.5589660406112671,-0.527633547782898,-0.4617055952548979,-0.0548903681337833,-0.00100492872297764,-0.0104918461292982,1560740726.12136,-0.000310897827148437,0.0146316289901733,0.018763542175293,"Sunday, June 16, 2019 at 11:05:26 PM Eastern Daylight Time",5,1.0806981060040854e-08,2.1287590704077708e-07,-1.0000002513714088,0.015525838204625999,0.01762249919397874,-0.0038272195561528397,204.68435127627612,-0.006747634591648134,-0.022496078707534763,-0.006844476199234066,-0.022393145992830647
85,2,1,2,-0.9779488444328309,0.03670958802104,0.20559304952621502,10.0111560821533,-14.896595954895,28.143518447876,8.32156372070313,-0.41588020324707003,0.602174878120422,0.49008360505104104,0.47354739904403703,0.29570370912551897,0.39167842268943803,0.023142397403717003,1560740727.75369,0.0109086036682129,-0.018872082233429,0.0163604021072388,"Sunday, June 16, 2019 at 11:05:27 PM Eastern Daylight Time",5,1.4874965148514718e-10,5.9078369973875056e-09,-1.0000000190968361,-0.015134562664857723,0.021208601102995894,0.007997257725213952,205.49741988760618,0.022790202262259165,-0.012628001767810345,0.02271105512863355,-0.012590289599482227
86,2,1,2,-0.9779850244522091,0.0302863288670778,0.20646607875824,9.91308116912842,-15.074370384216301,27.2881050109863,7.91156005859375,-0.414188355207443,0.6006861329078671,0.492350697517395,0.47456830739975,-0.0300711710005999,-0.0471373349428177,-0.00976084172725677,1560740728.75701,0.00137937068939209,-8.92281532287598e-05,0.00109601020812988,"Sunday, June 16, 2019 at 11:05:28 PM Eastern Daylight Time",5,2.0367681236033164e-08,1.1299435459521945e-07,-1.0000001057234063,0.00017932274041357115,0.0013465298435983027,0.0011254173774547939,207.0667786544257,0.00045302686106675445,-0.0012806505878194512,0.0005129831701197783,-0.0013071213625942303
87,2,1,2,-0.9782681465148929,0.031289741396904,0.20496927201747897,9.781736373901369,-15.1001434326172,27.246065139770497,7.999755859375,-0.41540211439132707,0.599959492683411,0.492476642131805,0.47429573535919206,0.0640065297484398,0.0222051832824945,0.0477523915469646,1560740729.76031,0.0104982256889343,0.00458356738090515,0.00338506698608398,"Sunday, June 16, 2019 at 11:05:29 PM Eastern Daylight Time",5,-1.1837872349040879e-09,-4.967826872093184e-09,-1.000000008436872,0.005738810179783747,0.004557231212311161,0.009432826323500336,207.79523132473656,-0.002951569235210026,-0.0067074986136274614,-0.003257415999053607,-0.006541431943156927
88,2,1,2,-0.9781934022903441,0.0313530340790749,0.20531721413135504,9.715559005737301,-16.090692520141598,28.9335994720459,8.53543090820313,-0.415606170892715,0.5997726917266851,0.49288064241409296,0.473933637142181,0.0257097091525793,0.0118293855339289,0.0114459628239274,1560740730.76364,0.00355976819992065,-0.00309395790100098,0.00220990180969238,"Sunday, June 16, 2019 at 11:05:30 PM Eastern Daylight Time",5,2.962753620217029e-08,1.7527937265504612e-07,-1.0000002517244444,-0.002466042715642196,0.0033583629814124306,0.0031254155801302692,207.16343731072166,0.003727251865749067,-0.001862139124652996,0.0037635547603917458,-0.001985562283642349
89,2,1,2,-0.977990865707397,0.0302081946283579,0.206450700759888,9.69769382476807,-15.5775947570801,28.1065368652344,8.100830078125,-0.415059357881546,0.599741697311401,0.493492901325226,0.47381493449211104,-0.00154268834739923,-0.00604558177292347,-0.0157714318484068,1560740731.76696,-0.000837087631225586,0.00722134113311768,-0.0012147426605224599,"Sunday, June 16, 2019 at 11:05:31 PM Eastern Daylight Time",5,3.3138311206215576e-08,2.0357679814120289e-07,-1.0000002801369683,0.0068686276110118604,-0.0025550352744216783,-0.0007860233343914456,206.62334623541477,-0.007285329922688018,-0.0007938629792855656,-0.00721877998141071,-0.0006531746470043558
90,2,1,2,-0.977636754512787,0.0300439186394215,0.20814374089241003,9.63915920257568,-15.944550514221199,29.260160446167003,8.4515380859375,-0.41482511162757896,0.5998669266700739,0.494197875261307,0.473126083612442,-0.0847398042678833,-0.0892734825611115,-0.0360997878015041,1560740732.77025,-0.00254702568054199,0.00125151872634888,-0.0019491910934448199,"Sunday, June 16, 2019 at 11:05:32 PM Eastern Daylight Time",5,5.265993835434912e-09,3.483791630176647e-08,-1.0000000388470955,0.000763467557311746,-0.002601424829024827,-0.002121954525048194,206.5971522415027,-0.0018473706137633022,0.0019843174311430655,-0.0016465471094745925,0.0019796507452573206
91,2,1,2,-0.9778636693954471,0.0312088988721371,0.206902757287025,9.46053218841553,-15.8976707458496,29.310920715332,8.6361083984375,-0.416215300559998,0.599030435085297,0.494584590196609,0.472560584545135,0.00583458133041859,3.69902700185776e-05,0.000120587879791856,1560740733.77355,0.006869196891784671,-0.005727171897888179,0.00278174877166748,"Sunday, June 16, 2019 at 11:05:33 PM Eastern Daylight Time",5,1.0696299762580352e-08,6.339797775645195e-08,-1.0000000511326534,-0.004776247614425116,0.0049965425512560925,0.006320325258554619,206.66200849614683,0.006510466064267318,-0.0023220272106153216,0.006553419178025581,-0.0024717177913201787
92,2,1,2,-0.977634727954865,0.0310171246528625,0.208010032773018,9.39436626434326,-15.3175401687622,28.5664958953857,8.22906494140625,-0.41615176200866705,0.5989736914634699,0.49521261453628496,0.472030371427536,0.00885625556111336,0.0074802227318286904,0.00374652817845345,1560740734.77689,-0.00782489776611328,0.00117844343185425,-0.0032086372375488303,"Sunday, June 16, 2019 at 11:05:34 PM Eastern Daylight Time",5,-2.80105932892738e-09,-1.7509708349905395e-08,-0.9999999485296717,0.00017015219707086594,-0.004859792158982039,-0.0070190152653857845,206.72440421219503,-0.002337422246872288,0.004264151596566174,-0.002397707310617494,0.004194869764031751
93,2,1,2,-0.977741003036499,0.0319057330489159,0.20737639069557198,9.25976467132568,-16.018304824829098,29.3440856933594,8.39913940429688,-0.417125523090363,0.5984172224998471,0.495565354824066,0.47150638699531605,0.0853675082325935,0.0955417901277542,0.0643849521875381,1560740735.78023,-0.0121134519577026,0.00643914937973022,-0.00550436973571777,"Sunday, June 16, 2019 at 11:05:35 PM Eastern Daylight Time",5,2.4978590557056535e-08,1.6651108752929744e-07,-1.0000002061190296,0.004743835094790378,-0.008775685496764055,-0.01090778721413536,206.72440421219503,-0.008183519093486472,0.005704966484671243,-0.008216200936439618,0.006016823818711271
94,2,1,2,-0.977295577526093,0.0308180078864098,0.20962761342525502,9.223652839660641,-15.2976608276367,28.0470542907715,8.11056518554688,-0.41638529300689703,0.598585784435272,0.496496587991714,0.47096660733223,-0.0054988656193018,-0.00837506167590618,-0.00046691927127540095,1560740736.78354,-0.011091411113738998,0.00578728318214417,-0.00862860679626465,"Sunday, June 16, 2019 at 11:05:36 PM Eastern Daylight Time",5,1.134830460158831e-08,6.71370000149274e-08,-1.000000065886253,0.0037095402479671996,-0.011506339719328665,-0.009209145442491245,206.72440421219503,-0.008487681289040705,0.008609053892476067,-0.008516946672720467,0.008926738615716514
95,2,1,2,-0.9773132205009459,0.0312761180102825,0.20947740972042103,9.11238861083984,-15.628403663635302,28.7396392822266,8.1851806640625,-0.41701382398605297,0.598159492015839,0.49693453311920205,0.470489978790283,-0.00482036266475916,-0.00808525830507278,-0.00218598661012948,1560740737.78685,0.00262928009033203,-0.00211712718009949,-0.0012922286987304698,"Sunday, June 16, 2019 at 11:05:37 PM Eastern Daylight Time",5,8.073718499312932e-09,5.20829463723782e-08,-1.0000000558534472,-0.0021144735635338398,-0.000382404689465568,0.0029065382334568235,206.72440421219503,0.0017166382348486077,0.0012924337383651853,0.0016358305756771756,0.0009686085441674818
96,2,1,2,-0.9777226448059079,0.0318768694996834,0.20746698975563002,8.9594259262085,-15.6311206817627,28.127990722656197,8.08914184570313,-0.418327450752258,0.5971333384513849,0.49715718626975997,0.47039213776588396,0.0838501006364822,0.0838741883635521,0.0601329952478409,1560740738.79015,0.0571626424789429,0.011137068271637,0.0227659940719604,"Sunday, June 16, 2019 at 11:05:38 PM Eastern Daylight Time",5,1.592278142670267e-08,1.1517784362369277e-07,-1.0000001284067959,0.017924198390518068,0.03173102321415852,0.05081100027343458,206.72440421219503,-0.0017401119730704583,-0.03640201550026172,-0.0018315795203782698,-0.03630969264479699
97,2,1,2,-0.976974606513977,0.0306799076497555,0.211138710379601,8.94802379608154,-16.2603759765625,28.6518707275391,8.48703002929688,-0.417091399431229,0.597725450992584,0.49829071760177596,0.469537526369095,-0.0584237240254879,-0.0736828595399857,-0.0174417514353991,1560740739.79351,0.0196094512939453,0.0163013935089111,-0.0051509141921997105,"Sunday, June 16, 2019 at 11:05:39 PM Eastern Daylight Time",5,1.1525383619703788e-08,7.750199154665793e-08,-1.0000000967636415,0.016570415727845164,-0.0035128005191989737,0.01974536610235635,204.58712042121886,-0.01652956413436759,-0.003700264099916593,-0.016382475268738407,-0.003408320483346337
98,2,1,2,-0.976924121379852,0.0311526842415333,0.21130193769931802,8.82240104675293,-17.2548217773438,28.7236404418945,9.20852661132813,-0.417701244354248,0.5973135828971861,0.49886617064475997,0.46890789270401,-0.0547138303518295,-0.06501255184412001,-0.0315484590828419,1560740740.7968302,0.00753670930862427,0.00832119584083557,0.00148916244506836,"Sunday, June 16, 2019 at 11:05:40 PM Eastern Daylight Time",5,-1.1593663251652231e-08,-8.507484156039524e-08,-0.999999868772355,0.008903461634959921,0.001703248537104584,0.006788903265454059,202.83658233812636,-0.007544531181038523,-0.005025209838672367,-0.007231522067191533,-0.005223969627122703
99,2,1,2,-0.976858735084534,0.0312797203660011,0.211585611104965,8.72760009765625,-17.0928020477295,29.322326660156197,9.4007568359375,-0.418052792549133,0.596994996070862,0.49938941001892106,0.46844318509101895,-0.0009414406958967449,0.0058000166900456,-0.000480925664305687,1560740741.8001199,-0.00859344005584717,0.0268708169460297,-0.00867033004760742,"Sunday, June 16, 2019 at 11:05:41 PM Eastern Daylight Time",5,-3.5311705504081914e-09,-3.78987414506593e-08,-0.9999999400218937,0.024781628001932822,-0.014218477169490448,-0.0074005715339707226,203.00094864743832,-0.02836726665276465,0.003404755805700134,-0.028471528706186085,0.003238988696379684
100,2,1,2,-0.976692020893097,0.0313172861933708,0.21234966814518,8.65278720855713,-16.5094299316406,28.954544067382802,9.50625610351563,-0.41817384958267206,0.596859693527222,0.49993333220481895,0.46792733669281,-0.0174848567694426,-0.0171700827777386,-0.0108299199491739,1560740742.80347,-0.0160531997680664,0.0309531390666962,-0.00717687606811523,"Sunday, June 16, 2019 at 11:05:42 PM Eastern Daylight Time",5,2.830807324660789e-08,1.9305597001584296e-07,-1.0000002288260188,0.028578832898713213,-0.014893376851535323,-0.015124391792014216,203.12293872139796,-0.03213164224468455,0.002473849339394733,-0.032150581863217294,0.002385073398146648
101,2,1,2,-0.9767214059829709,0.031501580029726,0.21218733489513397,8.54477977752686,-16.6205768585205,29.2390575408936,8.94332885742188,-0.41870978474617,0.596386551856995,0.5004165768623351,0.46753466129303,-0.00695180287584662,-0.00787069834768772,-0.00100940768606961,1560740743.8068,0.000867724418640137,0.00888773798942566,-0.00306248664855957,"Sunday, June 16, 2019 at 11:05:43 PM Eastern Daylight Time",5,2.8814401836774195e-08,2.012640571702473e-07,-1.000000259769756,0.008414009124044573,-0.004104403032961534,0.0012173672048732603,203.135044180705,-0.009349984376956524,0.00046847192782287304,-0.00939237318762116,0.0003010732642584103
102,2,1,2,-0.9766767621040341,0.0314394682645798,0.21240098774433103,8.4604320526123,-16.489822387695302,29.776575088501,9.24044799804688,-0.41898083686828597,0.596056699752808,0.500916063785553,0.46717727184295704,0.0143045801669359,0.0100779123604298,-0.0051045510917902,1560740744.8101,-0.0139317512512207,-0.00110575556755066,-0.004131317138671871,"Sunday, June 16, 2019 at 11:05:44 PM Eastern Daylight Time",5,3.4526196068807025e-09,3.662002459603464e-08,-1.000000058696771,-0.002518901629487613,-0.00669981542060545,-0.012694557003382383,203.135044180705,-0.000316019650343273,0.00715070092157509,-0.0003210229892302782,0.007162344007952513
103,2,1,2,-0.976545691490173,0.031319297850132,0.213020339608192,8.38664054870605,-16.066743850708,29.6797523498535,9.624755859375,-0.419087678194046,0.595857858657837,0.5014614462852479,0.46674981713295,0.007320706732571129,0.0142345745116472,0.00615609250962734,1560740745.8134599,-0.0126280188560486,0.0159211456775665,-0.009618759155273441,"Sunday, June 16, 2019 at 11:05:45 PM Eastern Daylight Time",5,9.149319413204182e-09,4.774393752571271e-08,-1.0000000255363157,0.013660841822814799,-0.014234157504100349,-0.010781485446944118,203.135044180705,-0.018154850354016816,0.00772212715401383,-0.018140036655217268,0.007700498490709426
104,2,1,2,-0.9767162203788761,0.0315105468034744,0.212208867073059,8.324245452880861,-15.8903131484985,30.1059741973877,9.81729125976563,-0.419605523347855,0.595429599285126,0.50156557559967,0.466719180345535,0.129254966974258,0.11996258050203301,0.0577662959694862,1560740746.81676,-0.0303100347518921,0.007490158081054691,-0.0200074911117554,"Sunday, June 16, 2019 at 11:05:46 PM Eastern Daylight Time",5,-9.271217127349018e-11,1.6806016162052018e-08,-1.0000000464877399,0.0028536922421864477,-0.02668099758040809,-0.025594553796231906,203.06120201636898,-0.013076968346916587,0.023431007023869018,-0.013169281575319443,0.02338897048117477
105,2,1,2,-0.976317405700684,0.0307290591299534,0.21414941549301103,8.29914665222168,-15.2605581283569,29.9958171844482,9.85513305664063,-0.418981581926346,0.59562611579895,0.502298951148987,0.46623995900154097,-0.0216594021767378,-0.0180342234671116,-0.007145198993384841,1560740747.82006,-0.0213057398796082,0.0128339827060699,-0.01465904712677,"Sunday, June 16, 2019 at 11:05:47 PM Eastern Daylight Time",5,-3.6971795069895563e-09,-2.351095604313791e-08,-0.9999999619525611,0.00943006258462992,-0.020459148156650637,-0.018056314766205034,203.10282287488636,-0.01670160143784133,0.015118178893547817,-0.01673033606941749,0.015083778687529584
106,2,1,2,-0.981581568717957,0.0339283421635628,0.18800754845142398,9.43231678009033,-15.2046699523926,29.7900199890137,10.308410644531302,-0.42186585068702703,0.594880044460297,0.490021944046021,0.477520257234573,0.0105688199400902,0.232328519225121,0.102853573858738,1560740748.8234198,0.0163077116012573,-0.0212187469005585,0.00760722160339355,"Sunday, June 16, 2019 at 11:05:48 PM Eastern Daylight Time",5,2.7103697120001158e-08,1.6680543116209812e-07,-1.0000001733617145,-0.018704078774179445,0.013791453647878557,0.015297050098322478,203.2645989677198,0.02263058113543171,-0.0052823814690852395,0.0226409642764151,-0.005269522852648721
107,2,1,2,-0.997700452804565,0.0141860889270902,-0.0662752017378807,9.70826244354248,-18.2790222167969,29.8493766784668,6.387725830078121,-0.47444930672645597,0.5256276726722721,0.436552345752716,0.555009365081787,-0.216213345527649,-0.36211296916008,0.0201846566051245,1560740749.82673,0.0701446533203125,-0.0138508081436157,0.0171633362770081,"Sunday, June 16, 2019 at 11:05:49 PM Eastern Daylight Time",5,-1.0903823594032858e-08,-6.317193504412622e-08,-0.999999920505434,-0.010552237086137329,0.014463171277352497,0.07131734962052119,203.3253732124602,0.015416538476457017,-0.009102932072909624,0.01543486713770025,-0.009100256457871471
108,2,1,2,-0.999331295490265,0.0308029502630234,-0.019701573997736,9.95427417755127,-17.2427616119385,29.91770362854,7.507965087890621,-0.467392832040787,0.543145179748535,0.4417493939399721,0.539809882640839,0.0655308663845062,0.160921290516853,0.101357504725456,1560740750.83005,-0.0447738170623779,0.0143623948097229,-0.0359243154525757,"Sunday, June 16, 2019 at 11:05:50 PM Eastern Daylight Time",5,-4.115779467239733e-09,-1.757570808336162e-08,-1.0000000059545728,0.006702809538206105,-0.036746951709970076,-0.04589404540963313,203.35049812107061,-0.020718661950471003,0.03108059141429655,-0.02068920592217318,0.031113010240300634
109,2,1,2,-0.9932315349578861,0.0622455291450024,-0.0980643630027771,9.54651737213135,-16.8468837738037,29.995332717895497,5.758148193359371,-0.49429339170455894,0.527321875095367,0.41581180691719105,0.552002012729645,-0.04775174707174299,0.187611669301987,0.0481822341680527,1560740751.83338,-0.103883028030396,0.00566992163658142,-0.080316424369812,"Sunday, June 16, 2019 at 11:05:51 PM Eastern Daylight Time",5,7.83428349970805e-10,-2.2020430479052777e-09,-1.0000000036122403,-0.012814335936122967,-0.06854477312328444,-0.11140900511033386,203.36670766863443,-0.015422479171416627,0.06800544290138524,-0.015407867904532541,0.0680018553979287
110,2,1,2,-0.993252396583557,0.0682709962129593,-0.0937487408518791,10.3153400421143,-16.8774337768555,29.8367080688477,6.053314208984371,-0.4912033975124361,0.5326726436614989,0.4115646779537199,0.5528052449226379,-0.00272959866560996,-0.0806816592812538,-0.0648915097117424,1560740752.83669,-0.0564711093902588,0.0344344973564148,-0.0389143228530884,"Sunday, June 16, 2019 at 11:05:52 PM Eastern Daylight Time",5,5.4544430083680595e-09,4.560231867123399e-08,-1.000000039327099,0.023789094568897752,-0.03831535868100701,-0.062089110122530586,203.29396761413412,-0.037001759516454506,0.02578483127632694,-0.036973453221313755,0.025816371719428674
111,2,1,2,-0.9983447790145871,0.0574574060738087,-0.00253429589793086,10.5321073532104,-16.4222526550293,29.906135559082,7.318756103515621,-0.467989414930344,0.5558762550354001,0.43558517098426797,0.531274974346161,0.0399706587195396,0.000530950725078583,0.0168163012713194,1560740753.8400302,-0.00932663679122925,0.0048583447933197,-0.0105767250061035,"Sunday, June 16, 2019 at 11:05:53 PM Eastern Daylight Time",5,8.582917043753469e-09,4.198523578802238e-08,-1.0000000369770552,0.0023110740197170255,-0.011163606507786408,-0.009617151679978883,203.24110329683666,-0.006528707913965592,0.009345755526410109,-0.006518555806448404,0.00935627185492564
112,2,1,2,-0.998576581478119,0.0531164407730103,0.00482997251674533,10.5573844909668,-16.4519290924072,30.2859916687012,7.402801513671871,-0.465105324983597,0.5569815039634699,0.43839091062545793,0.5303413867950441,-0.278433948755264,-0.13046349585056302,-0.14080819487571697,1560740754.84336,-0.0490413904190063,-0.0042589008808136,-0.0280740261077881,"Sunday, June 16, 2019 at 11:05:54 PM Eastern Daylight Time",5,-1.0815430967481277e-08,-6.297290630619123e-08,-0.999999936995712,-0.011922234660844138,-0.026576261097143394,-0.04860977082471174,203.17614645906954,0.0005007707952826446,0.02912364266060073,0.0006095940362328959,0.029152794776981728
113,2,1,2,-0.998475313186646,0.055097158998250996,0.00339729525148869,10.260507583618198,-16.766845703125,30.1385860443115,7.36480712890625,-0.467321038246155,0.555897414684296,0.43894955515861495,0.529067575931549,-0.0543437860906124,-0.0539213009178638,-0.0299467258155346,1560740755.84671,0.0128647685050964,-0.0200180411338806,0.00273621082305908,"Sunday, June 16, 2019 at 11:05:55 PM Eastern Daylight Time",5,1.741341379424277e-08,9.881212034712483e-08,-1.0000000947939283,-0.01847574953652023,0.006169909585011759,0.013938794207973448,203.04008623428425,0.019416711022029444,0.0015532025980044386,0.019365061157014044,0.0015050450423772003
114,2,1,2,-0.998499751091003,0.0545172654092312,0.00510846683755517,10.181982994079599,-16.8582134246826,30.3578796386719,7.193695068359371,-0.467151492834091,0.5559232234954828,0.43989044427871704,0.528408229351044,-0.0436992757022381,-0.039150308817625,-0.0276348441839218,1560740756.8500302,0.00186139345169067,-0.00626999139785767,-0.00898897647857666,"Sunday, June 16, 2019 at 11:05:56 PM Eastern Daylight Time",5,1.6901470500929605e-09,7.455369016584612e-09,-0.9999999907949629,-0.007647200234082462,-0.007749422249856232,0.002246343521568511,202.93468112887126,0.004022881102379031,0.010116800099974267,0.003997251698092656,0.010124599840789242
115,2,1,2,-0.998495161533356,0.0545239150524139,0.00590772181749344,10.062885284423801,-16.690845489502,29.718772888183604,7.3043212890625,-0.467525035142899,0.555679202079773,0.44065234065055797,0.527699410915375,-0.0353666543960571,-0.0514361336827278,-0.0263825412839651,1560740757.8533401,0.0186142921447754,-0.013723224401473999,0.00226271152496338,"Sunday, June 16, 2019 at 11:05:57 PM Eastern Daylight Time",5,3.285558938803668e-08,1.848309008345428e-07,-1.0000001730475865,-0.012078737049840962,0.004553650770749375,0.019321154194517298,202.89190122704736,0.012898762199082077,0.0005035452240647661,0.012854671796461187,0.0005040814449872471
116,2,1,2,-0.9984934329986569,0.0544936768710613,0.00641611218452454,9.94914245605469,-16.934185028076197,29.648744583129897,6.82012939453125,-0.46792700886726396,0.555370032787323,0.44133001565933205,0.527101695537567,0.0143950060009956,0.0009470148943364619,0.00952710956335068,1560740758.8566802,0.0210890173912048,-0.0013030469417572,-0.00795483589172363,"Sunday, June 16, 2019 at 11:05:58 PM Eastern Daylight Time",5,-1.0632473235183681e-08,-5.980452330578423e-08,-0.9999999315279636,-0.0014980458135276163,-0.007675764084420316,0.021179294237157933,202.8730582798608,-0.0016032461118836822,0.007654482179993257,-0.0016283066817079895,0.007661642353913081
117,2,1,2,-0.998504519462585,0.0541172623634338,0.00773984007537365,9.87670516967773,-17.152877807617198,29.8726425170898,6.522979736328121,-0.46786630153656,0.5553581118583679,0.442094206809998,0.526527404785156,0.0379162468016148,0.0369876772165298,0.0160329472273588,1560740759.86,-0.00489729642868042,0.0015908479690551801,-0.00980103015899658,"Sunday, June 16, 2019 at 11:05:59 PM Eastern Daylight Time",5,-1.6369058386533908e-08,-9.47162648590183e-08,-0.999999929298649,-0.0003799924448667155,-0.009920589153413067,-0.004900205948692433,202.85358526323276,-0.0035027706785187695,0.009289406923086206,-0.0035289986590517288,0.00929647094163047
118,2,1,2,-0.998527109622955,0.0534971989691257,0.00903429742902517,9.816221237182619,-16.5374870300293,29.5756855010986,6.821075439453121,-0.4676922857761379,0.5553296804428101,0.44286125898361206,0.52606725692749,0.031177157536148997,0.0353875644505024,0.0264702495187521,1560740760.86336,-0.00487399101257324,0.0170271992683411,-0.0160095691680908,"Sunday, June 16, 2019 at 11:06:00 PM Eastern Daylight Time",6,-3.762286482356103e-09,-1.7869228541300686e-08,-0.9999999787397751,0.013767160264115947,-0.018674080119697838,-0.005633084253548562,202.844747480601,-0.01993720620167,0.011864391216022778,-0.019940163466802868,0.011859252640560154
119,2,1,2,-0.998517334461212,0.053368154913187006,0.0107168573886156,9.74244594573975,-16.5201110839844,30.1167182922363,6.369720458984371,-0.46762242913246205,0.5554593205451971,0.44364780187606795,0.525329232215881,0.0104606710374355,0.0187919363379478,0.00345593295060098,1560740761.8667,-0.010603666305541999,0.0152030289173126,-0.00620448589324951,"Sunday, June 16, 2019 at 11:06:01 PM Eastern Daylight Time",6,-4.386256802213495e-09,-3.2477940031805375e-08,-0.9999999391053225,0.013338808830633186,-0.008701095733196877,-0.011332810092868725,202.844747480601,-0.01567058917297944,0.002839986434850425,-0.015669479557742068,0.0028284712151897275
120,2,1,2,-0.998473584651947,0.0537726320326328,0.012612821534276002,9.60731029510498,-16.3996448516846,30.018930435180696,6.858184814453121,-0.4679267406463621,0.555522978305817,0.44463539123535206,0.524154722690582,0.00601094728335738,0.0281858686357737,0.0113701364025474,1560740762.87001,-0.01337730884552,0.0050937831401825,0.0050511360168457,"Sunday, June 16, 2019 at 11:06:02 PM Eastern Daylight Time",6,1.24971138992791e-09,1.869254817599142e-08,-1.0000000392352395,0.00511738897303427,0.0040848355237055965,-0.013694504099501046,202.7645986089166,-0.003138146612366511,-0.005746789277183609,-0.0031395326705836147,-0.005761248352132161
121,2,1,2,-0.9983720183372501,0.05503775924444201,0.0149795953184366,9.25905704498291,-16.302806854248,30.1198406219482,6.77923583984375,-0.469323188066483,0.5550676584243771,0.446530729532242,0.521772027015686,-0.0373024493455887,-0.0605207420885563,-0.0280637294054031,1560740763.87335,-0.00374114513397217,-0.0121932029724121,0.0391348600387573,"Sunday, June 16, 2019 at 11:06:03 PM Eastern Daylight Time",6,1.6259461221856952e-08,9.897774405631665e-08,-1.0000001151086626,-0.005962639847882079,0.04056267605744005,-0.003650188076885264,202.7122412809189,0.02116164487919096,-0.035115075806601684,0.021228713568633234,-0.03508751765148511
122,2,1,2,-0.998266518115997,0.0545080564916134,0.0221970286220312,8.36150646209717,-16.8183555603027,29.7740039825439,6.89990234375,-0.47162207961082503,0.553305387496948,0.452715873718262,0.5162112116813661,-0.0009227064438164231,0.0104720946401358,-0.0109483171254396,1560740764.87672,0.0024878978729248,-0.0209561586380005,0.0257503986358643,"Sunday, June 16, 2019 at 11:06:04 PM Eastern Daylight Time",6,-1.2740566407432041e-08,-8.407087209727493e-08,-0.9999999387467828,-0.01684646691952145,0.028553479206973098,0.0030542802915733136,200.9417536531696,0.025939207093775736,-0.020646117258210805,0.007478992825200616,-0.01241211077729884
123,2,1,2,-0.997928082942963,0.0601806305348873,0.0227578338235617,8.00824356079102,-17.0993366241455,29.4646167755127,6.99285888671875,-0.47457680106163,0.5533122420310971,0.453017085790634,0.513223111629486,0.010342706926166999,-0.0203291084617376,0.023244583979249,1560740765.88,-0.00111401081085205,0.0163549184799194,0.0234023332595825,"Sunday, June 16, 2019 at 11:06:05 PM Eastern Daylight Time",6,8.791763705939815e-10,1.856914702558221e-08,-1.000000043009066,0.019324709301304817,0.020881570334500606,-0.0026285378729310025,176.33292953508172,-0.020620703287290935,-0.019602830539290534,-0.0212889967125319,0.0030363473506318586
124,2,1,2,-0.9976209402084351,0.0607545115053654,0.0325804725289345,11.7413177490234,-18.5480728149414,30.9566268920898,10.5556640625,-0.45561954379081704,0.570489406585693,0.43684330582618697,0.525471866130829,-0.17837023735046398,0.0225297324359417,-0.0178855024278164,1560740766.88337,0.0203830003738403,0.0763736665248871,-0.0192110538482666,"Sunday, June 16, 2019 at 11:06:06 PM Eastern Daylight Time",6,1.8253838551807178e-08,8.515551874754834e-08,-1.0000000691004065,0.07211337585645786,-0.03392307354013696,0.01632036570764666,150.47298597143148,-0.046029095590297144,0.06505717681365822,-0.043823000225446176,0.06042571634112408
125,2,1,2,-0.9974371194839481,0.0636541470885277,0.032675214111805,25.3475074768066,-17.5143871307373,28.3037300109863,12.9757080078125,-0.391013115644455,0.6187607645988461,0.36533918976783797,0.575127184391022,-0.34712433815002397,0.00870256498456001,-0.00487903039902449,1560740767.8866901,-0.000737428665161133,0.0896788537502289,0.0586376190185547,"Sunday, June 16, 2019 at 11:06:07 PM Eastern Daylight Time",6,5.673997008348586e-08,1.2905560364817603e-07,-1.0000001636916047,0.1058080186339315,0.014696437807240087,-0.008359957158732308,134.33248446443687,-0.08445316938537906,0.06541394554852158,-0.09549446285341169,0.030258324066345016
126,2,1,2,-0.9975062012672421,0.0650660991668701,0.0273435954004526,49.916385650634794,-17.9002914428711,23.4089889526367,17.6693420410156,-0.260767638683319,0.6807515621185299,0.22416312992572798,0.646783113479614,-0.436781495809555,0.127777218818665,0.0587887279689312,1560740768.89,-0.0245757699012756,0.15519165992736803,-0.0716234445571899,"Sunday, June 16, 2019 at 11:06:08 PM Eastern Daylight Time",6,-3.509037366233869e-08,-2.854079569902801e-08,-0.9999999455184075,0.043471148044873,-0.16389731286032888,-0.03265375494967367,146.99614286604128,0.05281775618128342,0.1611283789627088,0.03963845639139137,0.15689858822027533
127,2,1,2,-0.997512936592102,0.0704115480184555,0.0032036397606134397,74.6511306762695,-18.9021625518799,16.7173748016357,20.9615783691406,-0.11894166469574001,0.7047834992408749,0.0698715895414352,0.695881545543671,-0.37230801582336404,-0.00541858095675707,0.0135638928040862,1560740769.89335,0.0220786929130554,0.0473068356513977,-0.0270830392837524,"Sunday, June 16, 2019 at 11:06:09 PM Eastern Daylight Time",6,6.345455706886771e-08,1.4380908311406593e-08,-1.0000000540353313,-0.013145222758004562,-0.05416111420230468,0.018779595947463236,162.69227459060164,0.028663145267057658,0.04779798402016764,0.04107797071697945,0.054631834979112004
128,2,1,2,-0.9972164630889889,0.0744477957487106,-0.0041247196495533,90.1151962280273,-19.0911560058594,12.9503498077393,21.1979064941406,-0.0255732256919146,0.705126285552979,-0.0271027982234955,0.708101987838745,-0.19613157212734197,-0.0321044102311134,-0.0130097419023514,1560740770.8967,0.0144904851913452,0.00883117318153381,-0.0353050231933594,"Sunday, June 16, 2019 at 11:06:10 PM Eastern Daylight Time",6,5.527009027002632e-08,3.938894252430991e-09,-1.0000000809298664,-0.035384438511851635,-0.00980345027712644,0.013647062592051909,175.97309233294885,0.03598552790939907,0.007294375039505422,0.041084686341263964,0.013459978650030239
129,2,1,2,-0.9972107410430909,0.0731216222047806,-0.0149608375504613,96.64425659179692,-19.4983825683594,12.3223361968994,20.9324645996094,0.0156214348971844,0.698624551296234,-0.0666582137346268,0.7122052311897281,0.00629660207778215,0.0601985268294811,0.0384842976927757,1560740771.90005,0.00222986936569214,0.0120191425085068,-0.130133450031281,"Sunday, June 16, 2019 at 11:06:11 PM Eastern Daylight Time",6,-9.69281124052826e-08,1.2333549397058885e-08,-0.9999999301728831,-0.13066742385648608,0.0031318902680109,-0.0006021022590093713,185.22605914014773,0.13040951941233808,0.008783031400630406,0.12011049264317605,-0.021422518262569863
130,2,1,2,-0.997206568717957,0.0729091912508011,-0.0162289422005415,98.41503143310551,-19.286062240600604,11.7760906219482,21.2697448730469,0.0267480611801147,0.697066783905029,-0.0773526206612587,0.7123194932937621,-0.17302326858043696,0.009385997429490091,-0.007776144891977309,1560740772.90337,-0.0400846600532532,0.0245757699012756,0.006676256656646729,"Sunday, June 16, 2019 at 11:06:12 PM Eastern Daylight Time",6,4.676548948047074e-08,-1.0068718095390672e-08,-1.0000000347140159,0.0040884757515638895,-0.022435944213065624,-0.04165613537124893,189.05457835064792,-0.007568389605804591,0.021512942743327046,0.011590925345922985,0.03372263035598371
131,2,1,2,-0.99705296754837,0.0754069238901138,-0.0141103053465486,99.4681243896484,-19.982097625732397,11.4097738265991,21.1671752929687,0.0323254093527794,0.6969755291938778,-0.0846756100654602,0.7113439440727231,-0.0143314758315682,-0.0281081050634384,-0.010196328163146999,1560740773.9067,-0.004958152770996089,0.0113050788640976,0.0157252550125122,"Sunday, June 16, 2019 at 11:06:13 PM Eastern Daylight Time",6,-1.3764263656363546e-08,2.9170775309173003e-09,-0.999999962492276,0.013783151630600746,-0.013365084682446066,-0.005574134443252695,189.770095155186,-0.015851238605185367,0.010832312408833466,-0.0010825050826477889,0.02897240821621771
132,2,1,2,-0.9970425963401791,0.0757707580924034,-0.0128411455079913,100.06125640869101,-19.407085418701197,11.5858325958252,21.185791015625,0.0358225107192993,0.696964085102081,-0.0884335413575172,0.710730135440826,0.0169432330876589,0.0162512324750423,0.0149744749069214,1560740774.9100401,-0.0162140727043152,0.0223853141069412,-0.0329684019088745,"Sunday, June 16, 2019 at 11:06:14 PM Eastern Daylight Time",6,5.500368553852664e-09,1.014381141584142e-09,-1.0000000208583102,-0.035932242667170045,-0.015014120423749704,-0.018285625243919544,191.02832447889472,0.03239655885918609,0.021610480079686908,0.03237455334382547,0.020842179590293407
133,2,1,2,-0.9971011281013492,0.0749537199735641,-0.0130883837118745,100.05417633056601,-19.3146133422852,10.5618305206299,21.5187072753906,0.0360768064856529,0.696918070316315,-0.0880966037511826,0.7108042240142819,-0.018387682735919997,-0.00827396381646395,-0.00579889724031091,1560740775.9134,0.00157749652862549,0.007119454443454741,0.0065830945968627895,"Sunday, June 16, 2019 at 11:06:15 PM Eastern Daylight Time",6,-1.050585113999622e-08,3.0992260771633973e-09,-1.0000000127935238,0.005199943950605352,-0.008258704084986695,0.0011254559470205176,191.79582175891386,-0.006778415530535086,0.0070213028098931795,-0.006904382554163056,0.007023170585516193
134,2,1,2,-0.99704521894455,0.0762172341346741,-0.00959343928843737,99.9751815795898,-18.9696731567383,10.9346399307251,21.715148925781197,0.0349878184497356,0.698167085647583,-0.0881249159574509,0.7096285820007321,-0.0114165917038918,0.00777051597833633,0.004826582502573729,1560740776.91675,0.0149362087249756,0.0221673548221588,-0.00519967079162598,"Sunday, June 16, 2019 at 11:06:16 PM Eastern Daylight Time",6,1.4915587004046826e-07,-2.993955267038828e-08,-1.0000001347383325,-0.009287381448788809,-0.02196066297875296,0.01315265579976665,191.5582594925197,0.004698916893809602,0.023376192005259283,0.005333725059713933,0.02401809961233861
135,2,1,2,-0.9969821572303771,0.0773700699210167,-0.00639786059036851,99.9013137817383,-19.176227569580103,10.783232688903801,21.555114746093697,0.0339826047420502,0.699308931827545,-0.0881367549300194,0.708550870418549,0.0100155211985111,-0.0179612562060356,0.0051410705782473105,1560740777.92007,-0.0152131915092468,0.0137204378843307,0.011116623878478999,"Sunday, June 16, 2019 at 11:06:17 PM Eastern Daylight Time",6,2.2028971781657206e-07,-3.6140384615523935e-08,-1.0000002410876727,0.008896398347065765,-0.014249690398662161,-0.016157702747697972,190.91316140166802,-0.011433274191254254,0.012307713893124036,-0.011364612773827401,0.012848513585838203
136,2,1,2,-0.996908783912659,0.0784274488687515,-0.00469746999442577,99.7829132080078,-18.9769649505615,10.6995458602905,21.645446777343697,0.0328020974993706,0.6999569535255429,-0.0878153070807457,0.708006203174591,0.00912046805024147,-0.00804729759693146,-0.00673982966691256,1560740778.9234,0.00226366519927979,0.0010508596897125199,0.0124041438102722,"Sunday, June 16, 2019 at 11:06:18 PM Eastern Daylight Time",6,2.6531050657634114e-08,-1.4927692484900668e-09,-1.0000000272013119,0.012004206088035773,-0.0033175535084385126,0.0022325198324806284,190.57055546431226,-0.012409084239379187,0.0010591286160702472,-0.012862942225695041,0.0006416567543134927
137,2,1,2,-0.996882319450378,0.0788654237985611,0.00243840063922107,99.8427886962891,-19.512050628662102,9.74166011810303,21.675109863281197,0.0327007248997688,0.702421009540558,-0.0884529575705528,0.705486714839935,-0.0026172285433858603,-0.0131032653152943,0.0128630194813013,1560740779.92677,-0.007739126682281491,0.00567854940891266,0.0607765913009644,"Sunday, June 16, 2019 at 11:06:19 PM Eastern Daylight Time",6,4.118759202708516e-08,-1.1509936739817483e-08,-1.0000000298506835,0.05900196897340479,-0.015350192725390356,-0.008311034587407163,190.24029556600004,-0.06079102512376343,0.004616494757628497,-0.06052810410712717,0.006007803353182235
138,2,1,2,-0.996761560440063,0.0786945298314095,0.0165372826159,99.9991302490234,-20.1678695678711,10.1567411422729,21.996032714843697,0.0330908820033073,0.707278430461884,-0.0895871818065643,0.700454354286194,0.0195735637098551,0.0037310332991182795,0.008059949614107609,1560740780.9301,-0.0006399154663085941,-0.021464005112648,0.15310406684875502,"Sunday, June 16, 2019 at 11:06:20 PM Eastern Daylight Time",6,-4.9233852789359184e-08,8.576364618484433e-09,-0.999999959556305,0.15450608740663607,-0.005257836527064987,-0.0014806762831372842,189.80516580865657,-0.15314454924521106,-0.02113108911375677,-0.15251778932444396,-0.020087711627926018
139,2,1,2,-0.996849179267883,0.0749796032905579,0.0258764643222094,100.034217834473,-20.027517318725604,9.5092716217041,21.5947570800781,0.0342170037329197,0.7106870412826541,-0.0886688306927681,0.697058737277985,-0.146575927734375,-0.0495322719216347,-0.094981960952282,1560740781.9334302,-0.0165873169898987,-0.019381657242775,0.102548241615295,"Sunday, June 16, 2019 at 11:06:21 PM Eastern Daylight Time",6,-7.983850271783138e-08,1.415304111407334e-08,-0.9999999092612326,0.10414063743219175,0.002666849794828898,-0.017735420157902075,190.11407722785103,-0.10205397796685453,-0.02091339364503437,-0.10213790603662487,-0.02051481351966067
140,2,1,2,-0.997106790542603,0.0691556558012962,0.0315562002360821,100.319892883301,-20.444206237793,8.93704795837402,21.3721008300781,0.0377907566726208,0.7126998901367191,-0.0885266438126564,0.694833695888519,-9.502912871539591e-05,-0.00861109979450703,-0.0289649218320847,1560740782.93678,-0.019744873046875,0.0493392273783684,0.0884270668029785,"Sunday, June 16, 2019 at 11:06:22 PM Eastern Daylight Time",6,1.0405200550874308e-07,-1.9502663393955455e-08,-1.000000125124395,0.0778008635361426,-0.06261219089546441,-0.025890243289903806,188.5900755469198,-0.08628012340486761,0.050289174987668814,-0.08557922454832541,0.053621499043823934
141,2,1,2,-0.9971652030944821,0.067019447684288,0.0342078246176243,101.35676574706999,-20.507984161377,7.0772233009338406,21.4858093261719,0.0447177775204182,0.71289050579071,-0.0942923054099083,0.693467020988464,-0.227479740977287,-0.0594606921076775,-0.0792397484183311,1560740783.94014,0.0566859841346741,0.0170973762869835,0.09582865238189699,"Sunday, June 16, 2019 at 11:06:23 PM Eastern Daylight Time",6,9.967639726105038e-08,-1.669126523107245e-08,-1.000000111947707,0.09173957284090473,-0.03947216690391803,0.05210134840311962,184.12574176850615,-0.09434168083097569,0.032769626838106365,-0.09594997161317759,0.02660523385092681
142,2,1,2,-0.9971409440040592,0.0641880705952644,0.0398737378418446,102.463745117188,-20.6341800689697,7.50132942199707,21.6233215332031,0.0521466694772243,0.7140500545501709,-0.100346341729164,0.690900802612305,0.0750233605504036,0.28894153237342796,-0.0933895856142044,1560740784.94349,-0.0697706937789917,0.0476845726370811,-0.000812530517578125,"Sunday, June 16, 2019 at 11:06:24 PM Eastern Daylight Time",6,6.263102586296504e-08,-1.4022021266324458e-08,-1.0000000427927618,-0.01281896456943684,-0.0413207137670607,-0.07259959466121733,183.05511457679353,0.01059849637829621,0.04194519177892836,0.01820428900778385,0.034813038705351074
143,2,1,2,-0.9958383440971371,0.0797460004687309,0.0441195257008076,103.70272827148399,-20.9796581268311,8.43151473999023,21.0177001953125,0.0537652783095837,0.713564574718475,-0.11351370066404301,0.6892383694648739,-0.0835184082388878,0.0049038901925087,0.0453722253441811,1560740785.94682,0.00114613771438599,0.0322628319263458,-0.0504685640335083,"Sunday, June 16, 2019 at 11:06:25 PM Eastern Daylight Time",6,-1.4256874465712333e-09,-1.3813479596280764e-09,-0.9999999823564755,-0.05661648838237585,-0.01957602704212003,0.0007951853034282774,185.7077312504588,0.054388879695057714,0.025109706430423536,0.06445593153833429,0.017960348564272616
144,2,1,2,-0.994274377822876,0.09859587997198101,0.0411988832056522,103.264549255371,-20.0570106506348,9.48421478271484,21.5245666503906,0.0444782078266144,0.7119473814964291,-0.117176651954651,0.690957486629486,0.0745197460055351,0.116845175623894,0.0405371934175491,1560740786.95019,-0.0749390125274658,-0.0310223251581192,-0.191425681114197,"Sunday, June 16, 2019 at 11:06:26 PM Eastern Daylight Time",6,1.03147975924478e-09,4.1490660213083785e-09,-1.0000000169599548,-0.18058220090994845,0.08106555402978734,-0.0635647411007443,186.77612754595054,0.18888573060839706,-0.05919236528615331,0.17410241140749075,-0.06642677342420891
145,2,1,2,-0.994189202785492,0.105497807264328,0.0214101299643517,99.90469360351558,-20.2620964050293,10.544816970825199,21.0096130371094,0.0226825177669525,0.70782744884491,-0.0984142646193504,0.699128448963165,0.22251236438751198,-0.0807358399033546,0.23832477629184698,1560740787.95351,0.0819589495658875,-0.071143239736557,-0.21101915836334198,"Sunday, June 16, 2019 at 11:06:27 PM Eastern Daylight Time",6,1.475793023229463e-07,-2.320565215679915e-08,-1.0000001759689354,-0.19548914745506527,0.09668673852385823,0.09350605858146814,186.2707788255618,0.20488032921112478,-0.07475548729979838,0.1853733314288234,-0.07987660115225317
146,2,1,2,-0.9953151941299442,0.0965014323592186,0.00594775471836329,95.0437698364258,-19.9002838134766,11.270477294921902,21.1352233886719,-0.0032453711610287398,0.706203997135162,-0.065190427005291,0.7049934267997741,0.00629723165184259,-0.125390440225601,0.0140788163989782,1560740788.9568698,-0.0103292465209961,-0.00617692619562149,-0.189192771911621,"Sunday, June 16, 2019 at 11:06:28 PM Eastern Daylight Time",6,1.4111337182443127e-07,-1.3780301247323656e-08,-1.0000001189497325,-0.18789990562683068,0.02364556302152935,-0.0085595274018678,179.60884824173002,0.18773410133371007,-0.02492778332706835,0.2150396858180528,-0.011949948231381964
147,2,1,2,-0.9956272840499879,0.0931352153420448,-0.00722774909809232,90.7725677490234,-19.9230175018311,12.469073295593299,21.627258300781197,-0.0280646067112684,0.7035305500030521,-0.0378271155059338,0.7091024518013,0.0674644485116005,0.0472169890999794,-0.0127070592716336,1560740789.9602,0.008920907974243159,-0.0200835764408112,-0.0209276676177979,"Sunday, June 16, 2019 at 11:06:29 PM Eastern Daylight Time",6,3.488931283289476e-08,2.5916785384438867e-09,-1.000000048719293,-0.020731382928004184,0.01946087852667644,0.0106011264742125,160.5493462417926,0.013067840442604369,-0.025253664631182404,-0.0043649632829861895,-0.0215829367465142
148,2,1,2,-0.9956309795379642,0.0930646955966949,0.007617991417646409,85.4800720214844,-20.3272304534912,14.848742485046401,22.566589355468697,-0.0607837811112404,0.7097786068916321,-0.00482959812507033,0.70178085565567,0.14360848069190998,-0.0080770431086421,-0.0147439679130912,1560740790.9635699,0.00376284122467041,-0.0173271000385284,-0.0171087980270386,"Sunday, June 16, 2019 at 11:06:30 PM Eastern Daylight Time",6,3.2644973148635535e-08,3.390986075268998e-09,-1.000000059387733,-0.018357291505351987,0.015491159836239258,0.005489276388821121,160.24705425499565,0.01204165104977655,-0.02078376348209813,-0.005353918570926097,-0.01805030512395612
149,2,1,2,-0.9962488412857059,0.0844386592507362,0.018927400931716,76.07261657714841,-19.2569541931152,15.9453639984131,22.3973388671875,-0.11476986855268499,0.7114812731742859,0.0570797547698021,0.690915405750275,0.25897425413131697,0.00616853544488549,0.00339403399266303,1560740791.96689,-0.018889844417571997,-0.00366493314504623,-0.0140900611877441,"Sunday, June 16, 2019 at 11:06:31 PM Eastern Daylight Time",6,-7.780837300245397e-08,-1.5980325104858473e-08,-0.9999999437225969,-0.01527898146174898,0.0015935717048626192,-0.018242835198101725,157.46435297880734,0.013501548054557591,-0.00732768349599516,-0.0018765168159517315,-0.005258426990151024
150,2,1,2,-0.995363414287567,0.0919651836156845,0.0281846765428782,61.8062057495117,-18.333293914794897,20.578010559082,20.5119323730469,-0.201590269804001,0.7025306820869449,0.143328219652176,0.667284905910492,0.294607222080231,-0.0110215125605464,-0.0117379259318113,1560740792.97024,-0.0223522186279297,-0.0796889215707779,-0.00143837928771973,"Sunday, June 16, 2019 at 11:06:32 PM Eastern Daylight Time",6,1.0460732824055241e-07,5.989911476544929e-08,-1.00000014874573,-0.040281178680234404,0.0707675348274563,-0.014879431852577282,149.1508437079143,-0.0017059438726776122,-0.08141073084629252,-0.006348134239009567,-0.06814360909254273
151,2,1,2,-0.996631383895874,0.0752210319042206,0.0326745808124542,42.19224166870121,-18.376689910888697,25.0383224487305,16.5829772949219,-0.306297212839127,0.6671097278594971,0.267024159431458,0.6243754625320429,0.330782502889633,-0.00545260263606906,-0.0218732450157404,1560740793.9736,-0.0361889004707336,-0.0869151651859283,0.0396479368209839,"Sunday, June 16, 2019 at 11:06:33 PM Eastern Daylight Time",6,-6.65517393971804e-09,-5.47969825070993e-09,-0.9999999736191048,-0.04047801754085267,0.08858450124499662,-0.0308246262893196,117.45946128342321,-0.05993907590728279,-0.07676581885346742,-0.015778559298047543,-0.08484718552131933
152,2,1,2,-0.9968832731246949,0.0745093077421188,0.0259273704141378,23.925895690918,-19.3122673034668,27.3021354675293,11.591522216796902,-0.402556419372559,0.614216685295105,0.368376910686493,0.5700743198394781,0.27425959706306496,0.0483619719743729,0.0806313008069992,1560740794.9769301,0.0207049250602722,0.0057460069656372105,0.0655746459960937,"Sunday, June 16, 2019 at 11:06:34 PM Eastern Daylight Time",6,3.896958977733789e-08,7.804283569390336e-08,-1.0000000628562977,0.033338822500394175,0.05751147878734142,0.018512088950035734,98.14531548211643,-0.061654881466962116,0.02485403124876248,-0.062081113424315035,0.024304934592760258
153,2,1,2,-0.996612966060638,0.0754520818591118,0.0327052809298038,16.8901538848877,-18.7141609191895,28.2392635345459,9.21383666992188,-0.435661196708679,0.5924893021583559,0.406582176685333,0.542076289653778,0.174120828509331,0.0907049849629402,0.0399724282324314,1560740795.98031,-0.0209490060806274,0.0173307955265045,0.020055890083313,"Sunday, June 16, 2019 at 11:06:35 PM Eastern Daylight Time",6,6.862558965536891e-09,2.225157152979662e-08,-1.0000000280888763,0.020602062542359172,0.01397394362621568,-0.02284162811433704,97.63822304572669,-0.01658833061894143,0.018561879450762063,-0.017658178665642826,0.02289584220763425
154,2,1,2,-0.9953718781471249,0.0922575071454048,0.0268997494131327,20.690109252929698,-19.5455703735352,28.478004455566396,9.8802490234375,-0.423393785953522,0.607163727283478,0.38052868843078597,0.554335594177246,-0.24555730819702104,-0.131724536418915,-0.0658846274018288,1560740796.98367,0.0515215396881104,-0.0349827706813812,-0.0159130096435547,"Sunday, June 16, 2019 at 11:06:36 PM Eastern Daylight Time",6,4.695667402132564e-08,1.1517353148970955e-07,-1.0000001099746405,-0.03323349350755091,-0.0029624956557624434,0.05493856296872593,103.56256216928743,0.010673369709914496,-0.03161203331426688,0.0207872033596667,-0.02664780568342854
155,2,1,2,-0.995494306087494,0.0795197859406471,0.0516525059938431,33.872325897216804,-19.0009708404541,26.1752815246582,15.3275146484375,-0.34911748766899103,0.652322292327881,0.31670472025871305,0.5935409665107729,-0.326548039913177,0.220833316445351,-0.0164432805031538,1560740797.98701,-0.046805739402770996,0.116336166858673,-0.0838651657104492,"Sunday, June 16, 2019 at 11:06:37 PM Eastern Daylight Time",6,8.370510326538572e-08,1.2777899738303233e-07,-1.0000001455920335,0.04544768381016667,-0.1343095652350088,-0.05151403403660262,109.13327921064291,0.11199389494596318,0.08695929376529304,0.10410051692708312,0.08648212320763238
156,2,1,2,-0.996626913547516,0.0727458596229553,0.0379875749349594,47.9779052734375,-19.105489730835,23.9097518920898,18.2411499023438,-0.272954612970352,0.6811562180519101,0.234563410282135,0.6375751495361329,-0.21490213274955702,-0.0046266699209809295,0.00631034560501575,1560740798.99035,0.0657923221588135,0.0516994595527649,-0.0438320636749268,"Sunday, June 16, 2019 at 11:06:38 PM Eastern Daylight Time",6,5.6249620544734924e-08,5.55898322929238e-08,-1.000000110374476,0.0071192285149011166,-0.06959175850013162,0.06347454067034984,119.47830536730523,0.05707922663342271,0.0404432707964921,0.06285972960556048,0.03118098457366693
157,2,1,2,-0.997245371341705,0.0655436217784882,0.0347256697714329,54.9316215515137,-19.7369213104248,21.423780441284197,18.75390625,-0.23165754973888397,0.692382395267487,0.194857522845268,0.6549595594406129,-0.025287888944149,-0.0329301245510578,-0.00151142734102905,1560740799.99371,0.00912702083587646,0.00244486331939697,0.00424766540527344,"Sunday, June 16, 2019 at 11:06:39 PM Eastern Daylight Time",6,6.34188999232288e-08,4.721711147070984e-08,-1.0000000845796788,0.0054740566574766145,0.00014316722598365283,0.008794130669961223,126.71529380046444,-0.0033873703220847207,0.004302501068555307,0.001252108520471894,0.011340359709400172
158,2,1,2,-0.997222185134888,0.0643169358372688,0.0375681705772877,50.998779296875,-19.6092205047607,22.3188743591309,18.4512634277344,-0.253270328044891,0.686079978942871,0.21926775574684101,0.6458096504211429,0.29415369033813504,0.11706973612308501,0.0888047143816948,1560740800.99706,-0.0298373103141785,-0.10408589243888902,-0.0256482362747192,"Sunday, June 16, 2019 at 11:06:40 PM Eastern Daylight Time",6,3.5631044954798075e-08,3.165573519980924e-08,-1.0000000611006068,-0.08732520699734486,0.06533014717861807,-0.022096384502432717,127.52236445932681,0.001372889019747199,-0.10904969089020145,-0.016823102733901942,-0.09868173231600069
159,2,1,2,-0.99756270647049,0.0609502010047436,0.033970020711422,35.8308143615723,-19.3935985565186,25.668830871582,15.2554931640625,-0.335777521133423,0.6495444774627691,0.308345556259155,0.6084969639778139,0.272341132164001,-0.0695365220308304,-0.0818590223789215,1560740802.00041,-0.0460205674171448,-0.18609192967414898,-0.0447869300842285,"Sunday, June 16, 2019 at 11:06:42 PM Eastern Daylight Time",6,6.454299771030403e-08,8.779639118494664e-08,-1.0000001213251777,-0.1799062295038241,0.0727720258358568,-0.03304464953781054,119.33108364680942,0.024685129346098927,-0.19249068431408206,0.01661220598331089,-0.19342123558415017
160,2,1,2,-0.99766218662262,0.0614761263132095,0.0298456605523825,14.499246597289998,-19.1252670288086,28.4707546234131,8.1070556640625,-0.44361287355422996,0.580256104469299,0.422167837619781,0.536921560764313,0.33712506294250505,-0.0112357642501593,0.035935003310442006,1560740803.00375,-0.0288745164871216,-0.24707338213920602,0.0113370418548584,"Sunday, June 16, 2019 at 11:06:43 PM Eastern Daylight Time",6,-6.192049928355203e-09,-2.4102198736830616e-08,-0.9999999580884554,-0.23786361537623318,0.0723439398741191,-0.013956261165772255,114.22327633777508,0.03161958831269229,-0.24660281180736485,0.04208925904171896,-0.25140287771649517
161,2,1,2,-0.9974795579910279,0.0675487518310547,0.0217221584171057,356.782653808594,-20.147994995117198,29.466182708740202,2.67300415039062,-0.52450156211853,0.507938265800476,0.502851665019989,0.46264147758483903,0.42785915732383706,0.0246920734643936,-0.0584252923727036,1560740804.0071,0.0121545791625977,0.0289123952388763,0.0905542373657227,"Sunday, June 16, 2019 at 11:06:44 PM Eastern Daylight Time",6,-5.386279200436661e-09,1.0546218290330422e-07,-1.0000000773250957,0.024398274905246778,0.0923100759315279,0.008203923519881286,94.5793271460357,-0.09396333912878041,0.01695042290346315,-0.08930845218288214,0.006265585916393521
162,2,1,2,-0.99619847536087,0.0754076689481735,0.0436145551502705,345.553771972656,-20.1758136749268,28.3577442169189,-0.55682373046875,-0.562832951545715,0.462863028049469,0.554585516452789,0.40176081657409707,0.404883742332458,0.0646311491727829,0.21324653923511497,1560740805.01045,0.122446358203888,-0.0842632651329041,-0.00281274318695068,"Sunday, June 16, 2019 at 11:06:45 PM Eastern Daylight Time",6,9.036931009065441e-09,-3.700889775193339e-08,-0.9999999741342367,-0.0730610546540324,-0.016187466153153682,0.12845765156217698,86.86680064918852,0.012169939844802899,-0.07383660563563904,0.007217583008114453,-0.07060020888706385
163,2,1,2,-0.996135771274567,0.0729029774665833,0.0489755161106586,343.674621582031,-20.740343093872102,28.970031738281197,-0.7039794921875,-0.5673146247863771,0.45408624410629295,0.564175009727478,0.39200296998024003,-0.0180827584117651,-0.0133957741782069,0.0544204227626324,1560740806.01381,-0.0109350681304932,0.0160048007965088,0.0187604427337646,"Sunday, June 16, 2019 at 11:06:46 PM Eastern Daylight Time",6,1.1014311324109016e-08,-2.8154026221471895e-08,-0.9999999600572862,0.009375415955613375,0.021710502815797776,-0.012978413549651766,78.86455434855404,-0.019491102273808434,0.013391836655495492,-0.023363288593612266,0.009996013122599557
164,2,1,2,-0.995147705078125,0.0836005210876465,0.0518863759934902,346.61279296875,-20.225030899047898,29.5531330108643,-0.008697509765625,-0.5585559606552121,0.471804082393646,0.550766825675964,0.402581840753555,-0.132443800568581,0.0897355526685715,0.010421933606267,1560740807.01715,-0.0930131673812866,-0.000827103853225708,-0.0681604146957397,"Sunday, June 16, 2019 at 11:06:47 PM Eastern Daylight Time",6,-1.9874411644194012e-08,8.449991428793879e-08,-1.0000000990310527,0.00880886451801939,-0.0728504819461065,-0.08895609436515103,72.01016129141772,0.07200951966345076,-0.014121539990946655,0.07751328422928629,-0.00042364682310085415
165,2,1,2,-0.99566650390625,0.0790498480200768,0.0489826798439026,350.50418090820295,-20.2231121063232,29.144588470459,0.748260498046875,-0.544330656528473,0.488455921411514,0.534698188304901,0.42333528399467496,-0.107025034725666,-0.279746919870377,-0.00734693091362715,1560740808.02049,0.047626256942749,-0.0188589990139008,-0.0462888479232788,"Sunday, June 16, 2019 at 11:06:48 PM Eastern Daylight Time",6,6.291028670224463e-09,-3.393855041444738e-08,-0.9999999841987903,-0.0074179810200528246,-0.045742355266053365,0.05117802388279356,74.39553856691099,0.042060967449755356,-0.0194490237516006,0.046631300339875795,-0.012671741318109966
166,2,1,2,-0.9956734180450441,0.0729070380330086,0.0576127842068672,354.972808837891,-20.095684051513697,29.0242977142334,3.1885986328125,-0.52372932434082,0.509343922138214,0.5190136432647711,0.44373559951782204,0.11855159699916802,0.231061175465584,0.158153414726257,1560740809.02387,-0.16904616355896,0.154963314533234,-0.103285193443298,"Sunday, June 16, 2019 at 11:06:49 PM Eastern Daylight Time",6,-7.129995260868327e-09,7.670720200692038e-08,-1.0000001122501483,0.152018233731893,-0.09994992176641755,-0.17366212944010195,76.98401798859076,0.13161991681551716,0.12560146394669844,0.12359782051960219,0.12986581438947953
167,2,1,2,-0.9967840313911441,0.0682671070098877,0.0419648811221123,359.186859130859,-19.8546142578125,29.341287612915,3.911865234375,-0.5098384618759161,0.5233234167099,0.497106671333313,0.468062222003937,0.265358656644821,0.311225324869156,0.0378135964274406,1560740810.02722,-0.145965218544006,-0.0184663534164429,-0.0454279184341431,"Sunday, June 16, 2019 at 11:06:50 PM Eastern Daylight Time",6,3.493705325041674e-09,-5.854134824123669e-08,-0.9999999271917325,-0.027517538223143262,-0.05192156726955806,-0.14232878468099897,81.99175765298295,0.04758160812913899,-0.03448267137903396,0.050819828586169354,-0.0320023660176121
168,2,1,2,-0.9946622252464291,0.0859029442071915,0.0571666620671749,3.22802472114563,-19.0269660949707,30.3820972442627,5.373992919921871,-0.49384656548500105,0.548220038414001,0.477533370256424,0.477003544569016,0.0807647034525871,0.0648106187582016,0.186294272542,1560740811.0306,-0.11371362209320098,-0.0505529642105103,-0.0331295728683472,"Sunday, June 16, 2019 at 11:06:51 PM Eastern Daylight Time",6,6.571635013941091e-09,1.4365988162956533e-07,-1.0000001427037515,-0.062091705558997776,-0.036157501498979575,-0.10687007918304169,83.15583680955031,0.028500414301120953,-0.06595810184153608,0.029849789861940305,-0.06249259000786434
169,2,1,2,-0.994850099086761,0.0888666287064552,0.0487439446151257,6.10884761810303,-19.0406436920166,29.087112426757802,6.537445068359371,-0.48442590236663796,0.558627367019653,0.460768312215805,0.490876317024231,0.0572264716029167,0.0681247785687447,0.0204005166888237,1560740812.03395,0.0561814308166504,0.10203143954277001,-0.027940034866332997,"Sunday, June 16, 2019 at 11:06:52 PM Eastern Daylight Time",6,-1.2186583409068419e-09,-1.4507901213711705e-08,-0.9999999847436156,0.10345077671169203,-0.03637829695581911,0.04818682060947566,86.42266489036321,0.04276230155188446,0.10097935064974335,0.04991659241961827,0.09136934771678486
170,2,1,2,-0.9950352311134342,0.0842263326048851,0.0530166998505592,8.6053638458252,-19.069133758544897,29.1274299621582,6.492034912109371,-0.471423387527466,0.568613767623901,0.4507623910903929,0.5012500286102289,-0.501201272010803,-0.0633713901042938,-0.25210109353065496,1560740813.03729,-0.0613405704498291,-0.0066092312335968,-0.0988321304321289,"Sunday, June 16, 2019 at 11:06:53 PM Eastern Daylight Time",6,-1.1330789445596068e-08,-4.898416838816644e-08,-0.9999999783620376,-0.02643527681192038,-0.09911559037078146,-0.05523960003196564,90.4980660361375,0.09934164092045039,-0.025572690392363852,0.10132939252925441,-0.03593377306923611
171,2,1,2,-0.9942209720611569,0.0969773158431053,0.046043012291193,9.75387096405029,-18.5053462982178,29.8409938812256,7.293212890625,-0.4713291823863979,0.57402503490448,0.43990540504455605,0.504804193973541,-0.124349005520344,-0.0338030233979225,-0.0351118966937065,1560740814.04066,-0.03086256980896,-0.037350594997406,-0.07642769813537599,"Sunday, June 16, 2019 at 11:06:54 PM Eastern Daylight Time",6,1.25401497519384e-09,-2.0570051106894027e-08,-0.9999999500276047,-0.05242521533302453,-0.0699004851008273,-0.023543092067533626,94.73036763295146,0.0739857261086098,-0.04648218316975596,0.06702862961067346,-0.05703701401481559
172,2,1,2,-0.994776725769043,0.0981521233916283,0.0280318520963192,9.314982414245609,-18.8779735565186,30.4459915161133,6.813201904296871,-0.47755131125450107,0.5680091977119449,0.4374716877937321,0.507867097854614,0.0371011793613434,0.127577662467957,-0.039833202958107,1560740815.04402,0.00423860549926758,0.00030818581581115696,-0.19659864902496302,"Sunday, June 16, 2019 at 11:06:55 PM Eastern Daylight Time",6,2.857479111662009e-08,1.6715606940276295e-07,-1.0000001790949762,-0.030549629543675086,-0.19401488056279625,0.00969720621953591,96.26459292032631,0.1961899127737528,-0.009196296584992662,0.19539138992720093,-0.016094397267517182
173,2,1,2,-0.994270086288452,0.10518451035022698,0.0190639160573483,8.9449987411499,-18.4093246459961,30.8024578094482,6.971832275390621,-0.482995092868805,0.565817356109619,0.435181200504303,0.5071330070495611,0.10712487250566499,0.0906768143177032,0.0218114983290434,1560740816.04737,-0.047816276550292997,0.0487874150276184,-0.32921254634857205,"Sunday, June 16, 2019 at 11:06:56 PM Eastern Daylight Time",6,1.4861023855949895e-08,1.0375725256750457e-07,-1.0000001093005406,-0.007720521169240047,-0.3329191119998077,-0.04639792301015974,94.83408798517308,0.33238549929799094,0.02036225523586369,0.33201308212377506,0.011649774413310224
174,2,1,2,-0.994696497917175,0.10141552984714501,0.0171513743698597,8.50344753265381,-18.3311080932617,31.1152515411377,7.09405517578125,-0.48439085483551003,0.5628349184989929,0.43794125318527205,0.506744503974915,-0.0465557388961315,-0.10474193841218901,0.00182567711453885,1560740817.05069,0.0315254330635071,-0.042337566614151,-0.24247312545776398,"Sunday, June 16, 2019 at 11:06:57 PM Eastern Daylight Time",6,2.5860318331183407e-08,1.7798664947443754e-07,-1.000000201152786,-0.07385335700326418,-0.23353872313245921,0.03981062047889843,94.53434137803518,0.23864637101961744,-0.05515943384551851,0.23835893830688437,-0.05504528357311824
175,2,1,2,-0.99537593126297,0.0954601466655731,0.0106953931972384,8.1047830581665,-17.8228855133057,30.883785247802702,7.273193359375,-0.486039936542511,0.558366537094116,0.4399710297584529,0.508347928524017,-0.0064961742609739295,-0.0244228187948465,-0.062698669731617,1560740818.05404,0.0234025716781616,0.013224184513092,-0.16932272911071802,"Sunday, June 16, 2019 at 11:06:58 PM Eastern Daylight Time",6,1.5618388971017083e-08,1.318425597029993e-07,-1.000000137787322,-0.008426259192660157,-0.1695678603595699,0.023842921376897107,92.4116578629021,0.16977224029079896,-0.0012835643917226058,0.16919746099215252,0.0036131210873942355
176,2,1,2,-0.995072364807129,0.0989699959754944,-0.00601579155772924,7.67307901382446,-18.2929363250732,31.087903976440398,7.07586669921875,-0.492539674043655,0.553210377693176,0.436978697776794,0.510306477546692,-0.0133690116927028,-0.0336304530501366,-0.0201733279973269,1560740819.05744,0.0191185474395752,-0.0140592157840729,0.116948843002319,"Sunday, June 16, 2019 at 11:06:59 PM Eastern Daylight Time",6,1.6462775420666986e-08,1.34656516215248e-07,-1.0000001305271358,0.0036841645500572326,0.11739085587765787,0.02111933171581261,78.9944295521021,-0.11452855301152404,0.02602684493378835,-0.11791760886768685,0.0020533581254321316
177,2,1,2,-0.9952457547187809,0.0973918437957764,-0.0007706942851655191,7.66207456588745,-17.6755771636963,30.687259674072298,6.807586669921871,-0.49103131890296897,0.554163694381714,0.43876788020134,0.509189069271088,0.0244300365447998,-0.00590293575078249,0.012539304792881,1560740820.06079,-0.0130087733268738,-0.00802561640739441,-0.0008016228675842291,"Sunday, June 16, 2019 at 11:07:00 PM Eastern Daylight Time",7,-1.1715473979823088e-08,-8.18961513882055e-08,-0.9999999387466836,-0.009277361911628833,0.000449846208147928,-0.01216591532767383,76.07589770547825,-0.002669098498344999,-0.008896500371295387,-0.0002531749981806858,-0.004861160649006651
178,2,1,2,-0.9953332543373109,0.0964939445257187,-0.000754872977267951,7.56956577301025,-17.786302566528303,30.5417423248291,7.03778076171875,-0.49120935797691295,0.5536150336265561,0.43946895003318803,0.5090095996856691,0.000623508356511593,-0.0192051585763693,-0.0102083515375853,1560740821.0641198,-0.00584113597869873,-0.00514402985572815,0.00145608186721802,"Sunday, June 16, 2019 at 11:07:01 PM Eastern Daylight Time",7,-1.2918203728951028e-09,-3.063897938138105e-08,-0.9999999691765222,-0.005441530135105698,0.0021967292186580003,-0.005316410218459749,75.88554312426226,-0.003457381230147028,-0.004741559290022244,-0.0023102293871375135,-0.0013317305625865352
179,2,1,2,-0.995389640331268,0.0959151685237885,-0.000246490322751924,7.467923164367679,-17.296667098999,31.0738544464111,6.99127197265625,-0.491400390863419,0.5532270073890689,0.440246105194092,0.50857549905777,0.00396122690290213,0.0267695002257824,0.0182415507733822,1560740822.06746,0.00703299045562744,-0.0037260949611663797,-0.023695707321167003,"Sunday, June 16, 2019 at 11:07:02 PM Eastern Daylight Time",7,1.4347758897637064e-08,1.365151784393781e-07,-1.0000001581945965,-0.006090233040219335,-0.023101706178147118,0.007352109699491955,77.14308198194388,0.021167337046069643,-0.011078068839094103,0.02296755470269482,-0.0008001167308503204
180,2,1,2,-0.995462357997894,0.095150463283062,0.0009795076912269,7.39328527450562,-17.824167251586896,30.9764251708984,6.997406005859371,-0.49126473069190996,0.553083777427673,0.44112139940261796,0.5081034898757929,0.0356418453156948,0.0282291024923325,0.025851434096694003,1560740823.07085,-0.026524543762207,0.00361517071723938,-0.0254712104797363,"Sunday, June 16, 2019 at 11:07:03 PM Eastern Daylight Time",7,-3.901722056554036e-09,-5.406731123924757e-08,-0.9999999381445095,-0.0022137902207960605,-0.025423847720347767,-0.026723221070109104,78.3108622998691,0.024448070876749693,-0.0073187929643178246,0.024964289472266553,0.002951168712752041
181,2,1,2,-0.9955045580863949,0.0947048217058182,0.00142022781074047,7.3028826713562,-17.770298004150398,30.919469833374,6.9771728515625,-0.49145331978797896,0.552749812602997,0.44178926944732705,0.507704317569733,0.0196923837065697,-0.0041486038826406,0.0008502055425196889,1560740824.0742,-0.0163939595222473,0.00328242778778076,-0.0117692947387695,"Sunday, June 16, 2019 at 11:07:04 PM Eastern Daylight Time",7,1.7686249575987745e-08,1.5245009113429298e-07,-1.0000001727360504,0.00020314674476422118,-0.011915231850453279,-0.016614407031162473,79.53169477769629,0.011753819565439182,-0.0019651321261084822,0.011296515858433387,0.0046150182007705055
182,2,1,2,-0.995525062084198,0.0944839417934418,0.00157403643243015,7.194360256195071,-17.5785751342773,30.4241790771484,7.15362548828125,-0.49184334278106706,0.5523213148117071,0.442411780357361,0.507250487804413,0.00811898894608021,0.0175741724669933,0.008449395187199121,1560740825.07755,-0.0008857250213623051,-0.0019135475158691398,-0.0179961919784546,"Sunday, June 16, 2019 at 11:07:05 PM Eastern Daylight Time",7,-2.605088922358334e-09,-5.05729466360183e-08,-0.9999999210426272,-0.00422515061103769,-0.017606952145836026,-0.0006726344346208806,79.51355612138796,0.01654389100649895,-0.007359098580450954,0.017528328539126187,-0.004430528634799985
183,2,1,2,-0.995555341243744,0.0941541716456413,0.0021134070120751897,7.09292936325073,-17.2168922424316,30.451059341430696,7.11614990234375,-0.492087632417679,0.551993906497955,0.44312462210655196,0.506747484207153,-0.0118994191288948,0.0035971472971141295,-0.0168828368186951,1560740826.08092,0.006684005260467529,-0.000515758991241455,-0.0236793756484985,"Sunday, June 16, 2019 at 11:07:06 PM Eastern Daylight Time",7,-8.396166650825876e-09,-4.509975262689814e-08,-0.9999999560032095,-0.0028036721514643932,-0.023498776160509834,0.006752903537521133,82.0144002939826,0.022881410822442775,-0.0060410344601931325,0.02338727306346434,-0.003594707241598584
184,2,1,2,-0.995580077171326,0.0938930362462997,0.0021893773227930104,6.98157739639282,-17.8652229309082,30.348585128784197,7.26513671875,-0.49249613285064703,0.551524579524994,0.44375142455100997,0.5063132047653199,0.0212491564452648,0.022172374650836,0.0144855435937643,1560740827.08428,-0.00203359127044678,-0.00350481271743774,-0.00799393653869629,"Sunday, June 16, 2019 at 11:07:07 PM Eastern Daylight Time",7,2.585150096767741e-08,1.8916081440112364e-07,-1.0000001928445,-0.0046239381791558475,-0.007491705755058918,-0.0016780249161488267,84.03589641072901,0.006970702447328113,-0.005377338263104883,0.007463921859400454,-0.003953008517386675
185,2,1,2,-0.995621800422668,0.0934097394347191,0.00345194153487682,6.91629552841187,-17.4318504333496,30.1112842559814,7.197296142578121,-0.49237936735153204,0.5514851212501529,0.44451111555099504,0.5058029294013979,0.0445480346679687,0.009660789743065829,0.0180436950176954,1560740828.08761,-0.0140300989151001,0.0132595598697662,-0.0105088949203491,"Sunday, June 16, 2019 at 11:07:08 PM Eastern Daylight Time",7,-1.6787755630076617e-09,1.5768738148569383e-08,-1.000000032399248,0.01053594328693954,-0.011913526137350677,-0.015170967997573595,89.23848549512192,0.012052502591502789,0.010376675154054053,0.01182235040124105,0.009875740395859447
186,2,1,2,-0.995659470558167,0.0929963663220406,0.0037747316528111705,6.8358883857727095,-17.3642292022705,30.6462345123291,7.103485107421871,-0.49255645275115995,0.5511632561683649,0.445091485977173,0.505470991134644,-0.0245047397911549,-0.008772219531238079,0.0038325586356222604,1560740829.09095,-0.00302022695541382,-0.00237947702407837,-0.0218648910522461,"Sunday, June 16, 2019 at 11:07:09 PM Eastern Daylight Time",7,1.3647073082712069e-08,1.4715027671363679e-07,-1.0000001770301352,-0.005228531068824956,-0.021405881330656722,-0.0027033035007359013,91.81021809103495,0.02156036256464452,-0.004549731724058121,0.02131133200298831,-0.005690065300104085
187,2,1,2,-0.9956664443016049,0.09291295707225801,0.0039562736637890296,6.70303106307983,-17.3178634643555,31.0635471343994,7.59552001953125,-0.49308013916015603,0.550674378871918,0.44579800963401794,0.504870176315308,-0.00125950388610363,-0.0211752578616142,-0.0188574530184269,1560740830.09433,-0.0023566484451293898,0.000145316123962402,-0.00954997539520264,"Sunday, June 16, 2019 at 11:07:10 PM Eastern Daylight Time",7,2.995315606657556e-09,5.52651114593683e-08,-1.0000000690007038,-0.0011865704035217079,-0.009485598708487652,-0.002322155580019092,95.84533096827155,0.009557122155562852,-0.00021435550990337598,0.009438566395794679,-0.0009008680511112257
188,2,1,2,-0.9956609606742859,0.0929640978574753,0.00408212887123227,6.6137981414794895,-17.7214279174805,30.8000869750977,7.437255859375,-0.49345755577087397,0.5503706336021421,0.446243464946747,0.504438757896423,0.0018966989591717698,0.00148593122139573,0.0212797038257122,1560740831.09768,0.00673359632492065,-0.00602474808692932,-0.0206179618835449,"Sunday, June 16, 2019 at 11:07:11 PM Eastern Daylight Time",7,-1.0856513216195296e-08,-1.1510216960108899e-07,-0.9999998679386932,-0.007701726793538248,-0.019834824476268612,0.007348632770969331,96.12547431842059,0.020543401011408214,-0.0055412573023783515,0.019754795441386183,-0.007874608639493129
189,2,1,2,-0.995705246925354,0.0924743413925171,0.00442653615027666,6.51576995849609,-18.0726528167725,30.1439056396484,7.1065673828125,-0.49368676543235795,0.549966812133789,0.446933746337891,0.5040437579154969,-0.008070853538811209,-0.00127457734197378,-0.0235144477337599,1560740832.10103,0.00539076328277588,-0.0026206374168396,-0.0187665224075317,"Sunday, June 16, 2019 at 11:07:12 PM Eastern Daylight Time",7,-3.3101623386766477e-09,6.412617381545971e-10,-1.0000000183964748,-0.004217482592158048,-0.0183824034195536,0.00569302359203629,94.74358820199726,0.018668211083590954,-0.0026828734284091438,0.01829994527759309,-0.004488590791482295
190,2,1,2,-0.9957217574119571,0.0922788083553314,0.00480654230341315,6.42107486724854,-17.8859882354736,30.5637321472168,7.20233154296875,-0.4939679205417629,0.549649834632874,0.447535842657089,0.50357973575592,0.0211501959711313,-0.0026375362649559996,0.00841305311769247,1560740833.10442,-0.008721709251403809,0.00299173593521118,-0.00860333442687988,"Sunday, June 16, 2019 at 11:07:13 PM Eastern Daylight Time",7,1.1744776179378746e-08,1.272978863431362e-07,-1.0000001497519557,0.0011969606007000652,-0.008834743751125524,-0.008919116974516784,94.55783554895201,0.008711688144206066,0.0018952312539052365,0.008784364259265348,0.0013866308151890146
191,2,1,2,-0.995725512504578,0.0922169238328934,0.00518499221652746,6.33034944534302,-17.4050445556641,30.3299160003662,7.257476806640621,-0.49426546692848206,0.549377202987671,0.44808167219162004,0.503099620342255,0.0135534824803472,-0.00703873066231608,-0.00398078607395291,1560740834.10776,-0.00935828685760498,-0.00214961171150208,-0.006785035133361821,"Sunday, June 16, 2019 at 11:07:14 PM Eastern Daylight Time",7,1.149487158236262e-08,7.510622776485398e-08,-1.0000000707189904,-0.003735746692089423,-0.006460985027116909,-0.009084873929357376,94.55783554895201,0.006737415369146321,-0.0032105085285164545,0.006435829956071932,-0.00303428542412761
192,2,1,2,-0.995733678340912,0.0921010822057724,0.00567173073068261,6.240909576416019,-17.424972534179698,30.3321170806885,7.039154052734371,-0.49451908469200107,0.549124121665955,0.448663085699081,0.502608358860016,0.0162386614829302,0.0225422438234091,-0.00229405937716365,1560740835.1111,-0.0006989240646362299,0.0010484755039215099,-0.0291677713394165,"Sunday, June 16, 2019 at 11:07:15 PM Eastern Daylight Time",7,1.5742389281037106e-08,1.518924166166169e-07,-1.0000001680276136,-0.00218382727218548,-0.029106431403579363,-0.0006270805633453525,94.55783554895201,0.029187924662914047,0.00013603116578875338,0.029142164141188035,-0.000924303229987589
193,2,1,2,-0.9957446455955509,0.0919471755623817,0.00618843315169215,6.142004489898679,-18.0610580444336,30.6027526855469,6.947265625,-0.4947972595691679,0.5488322377204901,0.44930768013000505,0.5020771026611329,-0.00401512533426285,-0.0317488685250282,-0.0179764963686466,1560740836.11447,0.00874125957489014,0.00401002168655396,-0.00545287132263184,"Sunday, June 16, 2019 at 11:07:16 PM Eastern Daylight Time",7,-9.001278222786624e-09,-3.776889970219521e-08,-0.9999999895154902,0.004194384490807876,-0.0058812454876774655,0.008369097251219284,94.55783554895201,0.0055293386372397375,0.004648475446615157,0.005713550271183735,0.004035050010253292
194,2,1,2,-0.995742678642273,0.0914876461029053,0.0112601900473237,5.972838878631589,-18.273891448974602,30.199390411377,6.898406982421871,-0.49427312612533597,0.5493406057357789,0.451503038406372,0.500064134597778,0.005777378566563129,0.00427972851321101,-0.0104191731661558,1560740837.11782,0.00724470615386963,-0.0042736828327179,0.0442076921463013,"Sunday, June 16, 2019 at 11:07:17 PM Eastern Daylight Time",7,2.0113184007186646e-08,1.562186618953021e-07,-1.0000001316694997,0.0009919578193141078,0.04442494495537539,0.007107071303237494,94.344285474993,-0.04437244720296386,-0.002376056359520268,-0.04443464840319301,-0.0018795433848343406
195,2,1,2,-0.9958112835884091,0.09105384349823,0.00831445772200823,5.88446140289307,-17.7156829833984,30.2832012176514,7.190155029296871,-0.495216429233551,0.548155188560486,0.451312661170959,0.5006031394004821,0.028123876079917006,-0.00588270369917154,-0.00426604319363832,1560740838.1212,-0.0136972665786743,0.0168204307556152,-0.0632444620132446,"Sunday, June 16, 2019 at 11:07:18 PM Eastern Daylight Time",7,9.718118754165062e-09,4.3216882544827584e-08,-1.0000000225725019,0.008970248040632879,-0.06461767983068377,-0.014645616452209133,92.12795346493084,0.06424004302148666,0.011363396024462845,0.06422904682904554,0.011955581661844185
196,2,1,2,-0.995814681053162,0.0910966098308563,0.007378764450550079,5.737624645233151,-17.3545837402344,30.4922389984131,7.23974609375,-0.496080309152603,0.547351360321045,0.451769709587097,0.500214874744415,0.00312965083867311,-0.0177571270614862,-0.00308534549549222,1560740839.1245599,-0.0113428831100464,0.007378131151199341,-0.009071946144104,"Sunday, June 16, 2019 at 11:07:19 PM Eastern Daylight Time",7,2.3658857650765697e-09,-2.3875783822235874e-08,-0.9999999587442503,0.0053727303406176105,-0.00974205749235011,-0.01190059275316778,91.89064883022694,0.009559496770562084,0.005691215774407176,0.009529432638527097,0.005401755847002964
197,2,1,2,-0.995786309242249,0.0914064943790436,0.00738412933424115,5.62096977233887,-17.6181373596191,30.356737136840803,7.142913818359371,-0.496666073799133,0.546962678432465,0.45224317908287,0.499630659818649,0.00487606320530176,0.007720422931015491,0.005431653000414371,1560740840.12791,0.00782549381256104,-0.00368931889533997,-0.0288996696472168,"Sunday, June 16, 2019 at 11:07:20 PM Eastern Daylight Time",7,5.613650794211722e-09,4.969036682123118e-08,-1.0000000231274937,-0.00575149439425994,-0.02841395051663248,0.008343144569726964,91.9545288856531,0.028593581885005215,-0.0047790529097661415,0.028575804515748815,-0.004454535626787981
198,2,1,2,-0.995813250541687,0.0910654962062836,0.00794610753655434,5.55347537994385,-17.243709564209002,30.8128719329834,7.176971435546871,-0.496746033430099,0.5467604994773859,0.45279797911644,0.4992698132991789,-0.028782781213522003,0.007875225506722929,-0.0164167899638414,1560740841.13127,0.00568705797195435,0.0021599531173706102,-0.0284866094589233,"Sunday, June 16, 2019 at 11:07:21 PM Eastern Daylight Time",7,2.2693332490941742e-09,2.1735116928489617e-08,-1.0000000475893387,-7.716358670191784e-05,-0.028567110408705527,0.0056929072527613575,91.7693867646653,0.02855587220549498,0.0008049309943861357,0.02852922474874458,0.001107853158206237
199,2,1,2,-0.99580705165863,0.0911198109388351,0.00808717962354422,5.4446549415588406,-17.85719871521,30.580520629882802,7.599578857421871,-0.49720138311386103,0.5463779568672179,0.45333731174469,0.49874556064605696,-0.0179956629872322,0.0015347348526120199,-0.0242959558963776,1560740842.13462,0.00278222560882568,0.00314325094223022,-0.0190610885620117,"Sunday, June 16, 2019 at 11:07:22 PM Eastern Daylight Time",7,-4.381313173373869e-09,-6.068195165798151e-08,-0.9999999532764204,0.001574847745800365,-0.019274468475082615,0.002638299181989023,91.7693219654856,0.019216654803695048,0.0021692069000051905,0.019186847001983705,0.0022112612849959617
200,2,1,2,-0.995788991451263,0.0913095474243164,0.00817965995520353,5.34668493270874,-17.5189933776855,30.040880203247102,7.5052490234375,-0.49765408039093,0.546056509017944,0.453775405883789,0.49824753403663596,-0.00802974589169025,-0.0315922349691391,0.0010915312450379099,1560740843.1379998,-0.00445187091827393,-0.0132209658622742,-0.0104267597198486,"Sunday, June 16, 2019 at 11:07:23 PM Eastern Daylight Time",7,2.6576840173042626e-09,1.85938734131863e-08,-1.0000000278916694,-0.014480933619647017,-0.009152561153856606,-0.0031406364145093553,91.77088614115499,0.0095956918849572,-0.014191177238716835,0.009638844841101132,-0.014063201956459168
201,2,1,2,-0.995806276798248,0.0910827293992043,0.00860449206084013,5.25968742370605,-17.2637557983398,29.753793716430696,7.401885986328121,-0.497877806425095,0.5457670688629149,0.454357296228409,0.49781075119972207,0.0190883632749319,0.00410630460828543,0.0109405824914575,1560740844.14136,-0.0168998241424561,-0.0010923445224762,-0.0160713195800781,"Sunday, June 16, 2019 at 11:07:24 PM Eastern Daylight Time",7,8.452936822722634e-09,9.95801583136835e-08,-1.0000001208945992,-0.004091010435171301,-0.015908527709283308,-0.016591171308530706,91.77088614115499,0.016027353549743228,-0.0035974377616921176,0.01602324363380469,-0.0035203857282636703
202,2,1,2,-0.995815515518188,0.0909706279635429,0.008711631409823891,5.1617374420166,-17.3476905822754,29.921422958374,7.370086669921871,-0.498250544071198,0.545379757881165,0.45488101243972795,0.497383803129196,-0.0173185523599386,-0.0153821334242821,-0.00733096292242408,1560740845.1447,0.0056157112121582,-0.00783142447471619,-0.0246772766113281,"Sunday, June 16, 2019 at 11:07:25 PM Eastern Daylight Time",7,9.95574298001678e-09,6.749802203276367e-08,-1.0000000443103252,-0.009456204012138252,-0.023872791468854012,0.006519619301690547,91.77088614115499,0.024153613270906416,-0.008713950470025744,0.02419937938864454,-0.008737028297464176
203,2,1,2,-0.995811522006989,0.0909624099731445,0.009240542538464071,5.07981300354004,-17.641227722168,30.26243019104,7.39910888671875,-0.498482912778854,0.54518461227417,0.455405324697495,0.496884852647781,0.0007046812679618599,-0.000487312208861113,-0.000304287765175104,1560740846.1480699,0.00407099723815918,0.00278165936470032,-0.0321036577224731,"Sunday, June 16, 2019 at 11:07:26 PM Eastern Daylight Time",7,-3.194162712105708e-10,4.23993472276063e-08,-1.0000000675081988,0.0003138552609831015,-0.0322190452396882,0.004097573088318326,91.77088614115499,0.03219395817765881,0.0013093655475369679,0.03218634402118068,0.0015215228650712204
204,2,1,2,-0.99583774805069,0.0906826630234718,0.009159218519926071,5.00773286819458,-16.525833129882802,29.9936828613281,7.3209228515625,-0.498743504285812,0.54481440782547,0.45580354332923906,0.49666422605514504,-0.0169062707573175,0.0131981400772929,-0.0182742346078157,1560740847.1514301,0.004952073097229,0.007562637329101559,-0.0246524810791016,"Sunday, June 16, 2019 at 11:07:27 PM Eastern Daylight Time",7,2.8692389297813037e-09,4.602688433164026e-08,-1.0000000285497954,0.005821025966290902,-0.02521077269619349,0.004471457418774523,91.77088614115499,0.02501884558718136,0.006597330424053653,0.025010829595212558,0.006692959989698657
205,2,1,2,-0.995823860168457,0.090843178331852,0.00908458791673183,4.90332221984863,-17.3809299468994,29.776968002319304,7.603515625,-0.499253362417221,0.5444166660308839,0.4562376439571379,0.49618935585021995,-0.00930974259972572,0.0158649086952209,-0.0129754524677992,1560740848.15481,0.007440328598022459,0.00578474998474121,-0.0236927270889282,"Sunday, June 16, 2019 at 11:07:28 PM Eastern Daylight Time",7,9.660657634968928e-09,9.019198693449582e-08,-1.0000000866339205,0.004411881494825996,-0.024089558232619546,0.007098987588085403,91.77088614115499,0.023941713197750195,0.005154210252194833,0.023941187000653938,0.0052176679161701186
206,2,1,2,-0.9958667159080509,0.090308666229248,0.00970666669309139,4.83821582794189,-17.6552429199219,30.169021606445302,7.46270751953125,-0.49925795197486894,0.5441911220550539,0.456847190856934,0.495871305465698,-0.0437880456447601,0.0062711490318179105,-0.0281023271381855,1560740849.15814,-0.000618100166320801,0.007310986518859859,-0.0262233018875122,"Sunday, June 16, 2019 at 11:07:29 PM Eastern Daylight Time",7,1.7057077028592715e-08,1.869307108826046e-07,-1.000000195213905,0.005008612575694956,-0.026746307642496105,-0.0010212546879708618,91.77088614115499,0.026578753036970274,0.005832757447399873,0.026569524764095874,0.005956247482693202
